File: exp_pxrd_data/decifer/HEO/crystalline_CeO2_BM31.xye
0.00205854 0 0
0.0185269 0 0
0.0349952 0 0
0.0514635 0 0
0.0679318 0 0
0.0844001 0 0
0.100868 0 0
0.117337 0 0
0.133805 0 0
0.150273 0 0
0.166742 0 0
0.18321 0 0
0.199678 0 0
0.216147 0 0
0.232615 0 0
0.249083 0 0
0.265552 0 0
0.28202 26569.1 74.9872
0.298488 35695.5 59.1105
0.314957 38111.6 47.7637
0.331425 36097 37.5337
0.347893 34258.8 33.9076
0.364361 35529 33.0572
0.38083 36098.8 32.0274
0.397298 41589.1 33.1427
0.413766 42666.6 32.5446
0.430235 66137.2 39.2716
0.446703 116770 49.9283
0.463171 171651 58.3653
0.47964 220250 64.3466
0.496108 264626 68.7342
0.512576 284815 70.0812
0.529045 303625 70.6363
0.545513 301770 69.4708
0.561981 289738 66.5971
0.57845 290690 66.1853
0.594918 289185 64.7963
0.611386 280861 63.3671
0.627854 278610 62.1486
0.644323 277114 61.3712
0.660791 280114 60.7316
0.677259 276052 59.8234
0.693728 264720 57.7291
0.710196 265482 57.4071
0.726664 271058 57.1338
0.743133 266354 56.2787
0.759601 267810 55.5963
0.776069 267662 55.2633
0.792538 270118 54.7093
0.809006 269282 54.3182
0.825474 270846 53.7506
0.841943 265051 52.8285
0.858411 264542 52.179
0.874879 265388 51.8495
0.891347 267771 51.5948
0.907816 261187 50.4992
0.924284 259729 50.0377
0.940752 268229 50.2956
0.957221 269821 50.1163
0.973689 270652 49.6988
0.990157 264686 48.8388
1.00663 268038 48.6793
1.02309 267938 48.3496
1.03956 262955 47.4874
1.05603 267268 47.5348
1.0725 266823 47.2126
1.08897 262988 46.4627
1.10544 265073 46.3863
1.1219 263220 45.7707
1.13837 264872 45.6666
1.15484 265898 45.3565
1.17131 262595 44.8607
1.18778 260447 44.2802
1.20425 263556 44.3878
1.22071 263701 43.984
1.23718 268444 44.1651
1.25365 267836 43.773
1.27012 265116 43.3288
1.28659 266018 43.0991
1.30306 269187 43.1046
1.31952 266136 42.6415
1.33599 265331 42.266
1.35246 266826 42.2002
1.36893 269676 42.1097
1.3854 262510 41.4393
1.40187 263106 41.105
1.41833 262146 40.878
1.4348 263610 40.6803
1.45127 264919 40.6476
1.46774 267289 40.5109
1.48421 264260 40.1608
1.50068 265197 39.9171
1.51714 266673 39.9173
1.53361 271350 39.9574
1.55008 291721 41.313
1.56655 278839 40.1029
1.58302 264337 38.9645
1.59948 262986 38.5657
1.61595 265566 38.62
1.63242 265457 38.374
1.64889 265584 38.271
1.66536 263836 37.8963
1.68183 262184 37.6587
1.69829 262692 37.4639
1.71476 265622 37.5078
1.73123 260451 36.9636
1.7477 261557 36.8978
1.76417 266077 37.0517
1.78064 268076 36.9951
1.7971 274211 37.2958
1.81357 265515 36.4789
1.83004 264268 36.2851
1.84651 262836 36.0059
1.86298 263241 35.8776
1.87945 263524 35.7096
1.89591 263450 35.5878
1.91238 265108 35.5484
1.92885 266544 35.5251
1.94532 264204 35.2293
1.96179 259892 34.7656
1.97826 265666 34.9892
1.99472 262216 34.6862
2.01119 263773 34.5772
2.02766 266030 34.6344
2.04413 264053 35.5774
2.0606 263131 36.0372
2.07707 268202 36.7482
2.09353 264338 36.8039
2.11 264499 37.0569
2.12647 262909 37.1876
2.14294 265452 37.6082
2.15941 263356 37.6319
2.17588 267870 38.0737
2.19234 264685 38.0201
2.20881 267124 38.3177
2.22528 266641 38.4669
2.24175 264601 37.4358
2.25822 262080 36.3537
2.27469 266422 36.1012
2.29115 264038 35.5568
2.30762 263130 35.1284
2.32409 265150 34.9719
2.34056 260869 34.4702
2.35703 268564 34.69
2.3735 267831 34.4189
2.38996 264253 33.9838
2.40643 260410 33.5433
2.4229 264544 33.6235
2.43937 264829 33.4699
2.45584 266798 33.4237
2.47231 265778 33.2337
2.48877 266845 33.1186
2.50524 264402 32.8045
2.52171 268607 32.9115
2.53818 281071 33.5819
2.55465 269703 33.4416
2.57112 266980 33.4262
2.58758 268033 33.581
2.60405 265570 33.4786
2.62052 266650 33.5768
2.63699 265386 33.5176
2.65346 267759 33.6692
2.66993 265579 32.9177
2.68639 265524 32.5575
2.70286 268971 32.5288
2.71933 264499 32.0344
2.7358 268524 32.1095
2.75227 267347 31.8585
2.76874 267905 31.7552
2.7852 266889 31.5476
2.80167 267035 31.6949
2.81814 269583 32.2527
2.83461 271534 32.512
2.85108 266282 32.1585
2.86755 267797 32.2908
2.88401 270576 32.4672
2.90048 267085 32.2979
2.91695 268362 32.3698
2.93342 268855 31.7894
2.94989 269042 31.4762
2.96636 277408 31.765
2.98282 285643 32.0216
2.99929 275214 31.284
3.01576 271823 30.9126
3.03223 269707 30.6553
3.0487 270772 30.5617
3.06516 272945 30.5849
3.08163 270644 30.3106
3.0981 275419 30.4706
3.11457 273117 30.2142
3.13104 272733 30.0941
3.14751 272749 29.9727
3.16397 269883 29.728
3.18044 271755 29.7086
3.19691 272447 29.6714
3.21338 274687 29.6903
3.22985 272291 29.4633
3.24632 273805 29.4229
3.26278 272987 29.3039
3.27925 276815 29.371
3.29572 274565 29.1331
3.31219 273135 28.8978
3.32866 272217 28.7355
3.34513 273905 28.6855
3.36159 273140 28.5088
3.37806 271949 28.3562
3.39453 273708 28.3732
3.411 272935 28.2945
3.42747 270965 28.1437
3.44394 275351 28.3212
3.4604 273112 28.1877
3.47687 273742 28.1789
3.49334 273196 28.1207
3.50981 274452 28.0364
3.52628 273944 27.9028
3.54275 273426 27.7418
3.55921 273536 27.6467
3.57568 272800 27.4811
3.59215 277122 27.63
3.60862 274047 27.4111
3.62509 272540 27.3153
3.64156 270702 27.1886
3.65802 273212 27.2989
3.67449 273615 27.2952
3.69096 271481 27.176
3.70743 271161 27.1386
3.7239 273986 27.2044
3.74037 273579 27.0901
3.75683 272529 26.9804
3.7733 270737 26.8145
3.78977 271319 26.8014
3.80624 271246 26.7161
3.82271 274445 26.8184
3.83918 270077 26.5327
3.85564 269018 26.4506
3.87211 271183 26.4822
3.88858 272051 26.4742
3.90505 273238 26.4688
3.92152 274259 26.4779
3.93799 268778 26.1068
3.95445 266833 25.9593
3.97092 269559 26.0201
3.98739 269151 25.9559
4.00386 269169 25.9001
4.02033 272487 26.0199
4.0368 270103 25.8205
4.05326 268166 25.6814
4.06973 267634 25.5903
4.0862 267247 25.5184
4.10267 263878 25.2972
4.11914 265675 25.3348
4.13561 266475 25.316
4.15207 267295 25.3154
4.16854 268853 25.3177
4.18501 270576 25.3561
4.20148 266818 25.1143
4.21795 265319 25.0064
4.23442 268130 25.0826
4.25088 270471 25.1534
4.26735 270404 25.0877
4.28382 270293 25.0461
4.30029 269076 24.9345
4.31676 267615 24.8124
4.33323 268301 24.7991
4.34969 269108 24.7976
4.36616 272464 25.4886
4.38263 271081 25.7104
4.3991 276790 26.2104
4.41557 275806 26.3369
4.43203 275403 26.4885
4.4485 276845 26.6695
4.46497 279050 26.8885
4.48144 280348 27.0625
4.49791 288305 27.581
4.51438 289590 27.7037
4.53084 298796 28.2535
4.54731 305778 28.6464
4.56378 323018 29.4412
4.58025 347338 29.7342
4.59672 389640 31.1473
4.61319 490475 34.6513
4.62965 768786 43.1128
4.64612 2.22943e+06 72.9952
4.66259 9.04397e+06 146.37
4.67906 7.02634e+06 128.39
4.69553 1.58033e+06 60.6886
4.712 659593 39.032
4.72846 450647 32.158
4.74493 369748 29.0387
4.7614 332923 27.4561
4.77787 313846 26.5654
4.79434 298045 25.8226
4.81081 289518 25.3613
4.82727 281787 24.9607
4.84374 275933 24.6235
4.86021 276337 24.6202
4.87668 272455 24.3786
4.89315 269660 24.182
4.90962 268653 24.0561
4.92608 265413 23.8616
4.94255 266262 23.8281
4.95902 265257 23.7322
4.97549 262817 23.5646
4.99196 263413 23.5535
5.00843 260887 23.3818
5.02489 262965 23.4242
5.04136 262009 23.3217
5.05783 260848 23.2249
5.0743 261831 23.214
5.09077 259906 23.0465
5.10724 259523 22.948
5.1237 259923 22.8903
5.14017 261014 22.9015
5.15664 258340 22.7214
5.17311 261474 22.8066
5.18958 259039 22.659
5.20605 261194 22.7076
5.22251 262129 22.6732
5.23898 262931 22.6519
5.25545 263804 22.6331
5.27192 270762 22.8872
5.28839 272789 22.9562
5.30486 283070 23.4828
5.32132 300446 24.3638
5.33779 324180 25.293
5.35426 420211 28.5998
5.37073 919806 42.166
5.3872 2.96141e+06 75.4458
5.40367 1.81463e+06 59.0681
5.42013 552090 32.5195
5.4366 352766 25.9685
5.45307 301724 23.9887
5.46954 284792 23.2624
5.48601 274555 22.7849
5.50248 266291 22.3957
5.51894 263369 22.2249
5.53541 259287 22.006
5.55188 258886 21.9519
5.56835 258961 22.0603
5.58482 256457 22.0918
5.60129 255124 21.9616
5.61775 252429 21.7509
5.63422 252871 21.6649
5.65069 252017 21.5854
5.66716 252339 21.5256
5.68363 256156 21.6504
5.7001 252024 21.4217
5.71656 252807 21.4174
5.73303 251744 21.3067
5.7495 251228 21.2271
5.76597 250708 21.1613
5.78244 250697 21.115
5.7989 250071 21.0473
5.81537 250880 21.0803
5.83184 252273 21.1195
5.84831 251074 21.0403
5.86478 251195 21.0058
5.88125 252022 21.008
5.89771 249066 20.8553
5.91418 250854 20.8781
5.93065 248583 20.8034
5.94712 251539 20.885
5.96359 249685 20.7731
5.98006 249652 20.675
5.99652 250895 20.6709
6.01299 249099 20.5575
6.02946 251376 20.6236
6.04593 248090 20.4531
6.0624 250432 20.5513
6.07887 249132 20.4816
6.09533 248057 20.4171
6.1118 248290 20.3816
6.12827 247187 20.315
6.14474 247998 20.3077
6.16121 248618 20.3138
6.17768 249410 20.3125
6.19414 249543 20.2809
6.21061 247750 20.1831
6.22708 248659 20.1856
6.24355 247543 20.1125
6.26002 245999 20.0298
6.27649 248439 20.0979
6.29295 248481 20.0642
6.30942 248854 20.0496
6.32589 247569 19.9703
6.34236 248518 19.9777
6.35883 246183 19.8555
6.3753 249368 19.9692
6.39176 248029 19.8781
6.40823 249785 19.9372
6.4247 247273 19.7901
6.44117 247881 19.796
6.45764 247005 19.7257
6.47411 248858 19.7629
6.49057 245200 19.6035
6.50704 247724 19.6761
6.52351 245769 19.5641
6.53998 246667 19.5689
6.55645 246542 19.5443
6.57292 248353 19.5809
6.58938 246439 19.4952
6.60585 247906 19.5146
6.62232 248171 19.5025
6.63879 247287 19.4388
6.65526 246555 19.392
6.67173 247707 19.3984
6.68819 249327 19.4409
6.70466 247682 19.3586
6.72113 248090 19.5877
6.7376 246701 19.7918
6.75407 250019 20.0685
6.77054 248017 20.1202
6.787 248526 20.2372
6.80347 248884 20.3492
6.81994 248872 20.4422
6.83641 248851 20.4843
6.85288 249133 20.5648
6.86935 247300 20.5633
6.88581 247910 20.6547
6.90228 250294 20.8206
6.91875 247926 20.7427
6.93522 247574 20.4483
6.95169 247953 20.1914
6.96816 248027 20.0454
6.98462 249025 19.9734
7.00109 249030 19.8878
7.01756 248980 19.8034
7.03403 248924 19.7342
7.0505 248440 19.6493
7.06697 249398 19.6284
7.08343 249068 19.5786
7.0999 249652 19.5614
7.11637 248920 19.4848
7.13284 250844 19.5132
7.14931 249486 19.411
7.16578 249427 19.3511
7.18224 249206 19.3003
7.19871 249556 19.274
7.21518 250107 19.2351
7.23165 249050 19.1449
7.24812 251300 19.168
7.26458 251955 19.1753
7.28105 253282 19.1937
7.29752 251008 19.0839
7.31399 251733 19.0642
7.33046 252652 19.0508
7.34693 255138 19.0858
7.36339 255665 19.085
7.37986 257286 19.1018
7.39633 255796 19.0382
7.4128 257497 19.078
7.42927 261303 19.212
7.44574 261809 19.2214
7.4622 264409 19.2796
7.47867 269877 19.4568
7.49514 274084 19.5735
7.51161 283206 19.908
7.52808 296073 20.3393
7.54455 316555 21.024
7.56101 356771 22.264
7.57748 454866 25.1213
7.59395 825871 33.7811
7.61042 3.00045e+06 64.3101
7.62689 6.36049e+06 93.4877
7.64336 2.27626e+06 55.8735
7.65982 712175 31.2076
7.67629 432237 24.2793
7.69276 346016 21.6954
7.70923 309914 20.5303
7.7257 291003 19.8623
7.74217 281232 19.5048
7.75863 275016 19.2694
7.7751 270504 19.0917
7.79157 265506 18.9155
7.80804 263499 18.8152
7.82451 260318 18.693
7.84098 256408 18.5323
7.85744 257405 18.5396
7.87391 256063 18.4809
7.89038 256112 18.4687
7.90685 255213 18.4151
7.92332 252228 18.2819
7.93979 253316 18.3147
7.95625 252227 18.2517
7.97272 253117 18.2712
7.98919 251194 18.3111
8.00566 250756 18.3767
8.02213 251823 18.4637
8.0386 252388 18.5302
8.05506 251586 18.5401
8.07153 251620 18.5854
8.088 249683 18.528
8.10447 250210 18.5698
8.12094 248501 18.5379
8.13741 251235 18.6594
8.15387 250287 18.6639
8.17034 251446 18.7095
8.18681 250506 18.6916
8.20328 251297 18.7329
8.21975 249807 18.6939
8.23622 251220 18.7601
8.25268 249839 18.7229
8.26915 250815 18.8065
8.28562 251193 18.893
8.30209 251431 18.9581
8.31856 251572 18.9929
8.33503 251391 19.0278
8.35149 250841 19.03
8.36796 251751 19.1076
8.38443 250562 19.0983
8.4009 250368 19.1287
8.41737 251598 19.2231
8.43384 251585 19.2657
8.4503 252203 19.327
8.46677 250721 19.303
8.48324 251060 19.3556
8.49971 252418 19.4522
8.51618 251958 19.4817
8.53265 253233 19.5778
8.54911 252999 19.5578
8.56558 252276 19.5325
8.58205 253060 19.5594
8.59852 254184 19.6043
8.61499 254613 19.6357
8.63145 253438 19.6099
8.64792 254536 19.6653
8.66439 254796 19.6961
8.68086 254664 19.7062
8.69733 256538 19.8072
8.7138 258350 19.9002
8.73026 258084 19.9103
8.74673 258875 19.9787
8.7632 262386 20.1256
8.77967 264562 20.2451
8.79614 267752 20.3724
8.81261 273533 20.6255
8.82907 281458 20.9476
8.84554 293083 21.3981
8.86201 309939 22.0327
8.87848 341275 23.1472
8.89495 429941 25.9795
8.91142 728311 33.8555
8.92788 2.43959e+06 62.0162
8.94435 5.1924e+06 90.5545
8.96082 2.16889e+06 58.556
8.97729 680366 32.8448
8.99376 417408 25.7699
9.01023 337458 23.2041
9.02669 307531 22.1631
9.04316 288539 21.4769
9.05963 279675 21.1699
9.0761 273255 20.9382
9.09257 269401 20.8144
9.10904 265440 20.8735
9.1255 263214 21.2336
9.14197 261566 21.4358
9.15844 261666 21.6694
9.17491 260381 21.8157
9.19138 261449 22.0551
9.20785 258668 22.1113
9.22431 259879 22.297
9.24078 260764 22.4593
9.25725 264087 22.7264
9.27372 269214 23.0729
9.29019 282813 23.7659
9.30666 326641 25.668
9.32312 568209 33.8313
9.33959 1.14812e+06 47.0074
9.35606 736385 37.3376
9.37253 356789 25.834
9.389 288975 23.1762
9.40547 268868 22.2884
9.42193 261815 21.9451
9.4384 259524 21.7855
9.45487 256798 21.6162
9.47134 254963 21.4912
9.48781 253420 21.3395
9.50428 252592 21.2165
9.52074 251123 21.1161
9.53721 251800 21.0996
9.55368 251390 21.0628
9.57015 250708 20.986
9.58662 250139 20.923
9.60309 252281 21.002
9.61955 251457 20.9575
9.63602 249605 20.8787
9.65249 251904 20.9753
9.66896 251578 20.9589
9.68543 250287 20.9144
9.7019 251278 20.9828
9.71836 249553 20.9451
9.73483 249860 20.9549
9.7513 249703 20.9475
9.76777 249420 20.9632
9.78424 250601 21.0496
9.80071 249586 21.0344
9.81717 248238 20.9643
9.83364 249371 21.0172
9.85011 249714 21.0228
9.86658 247910 20.9757
9.88305 250350 21.0671
9.89952 249881 21.0788
9.91598 247514 20.9493
9.93245 249180 21.022
9.94892 249372 21.0196
9.96539 249818 21.0802
9.98186 248347 21.0218
9.99833 248593 21.0136
10.0148 249536 21.0541
10.0313 250327 21.0844
10.0477 247917 20.9874
10.0642 249607 21.0887
10.0807 248391 21.0452
10.0971 250140 21.1053
10.1136 250277 21.1035
10.1301 249354 21.0707
10.1465 248768 21.0539
10.163 249374 21.076
10.1795 248527 21.0477
10.1959 249247 21.0875
10.2124 248894 21.0695
10.2289 248609 21.075
10.2453 248452 21.064
10.2618 249305 21.1097
10.2783 249773 21.1258
10.2948 249090 21.1239
10.3112 249851 21.1683
10.3277 248326 21.0827
10.3442 248529 21.0971
10.3606 249047 21.114
10.3771 248609 21.1084
10.3936 250352 21.1734
10.41 249082 21.1387
10.4265 248682 21.1244
10.443 249633 21.1719
10.4594 249140 21.1525
10.4759 250026 21.1926
10.4924 252013 21.2804
10.5088 249689 21.1887
10.5253 248623 21.1501
10.5418 248882 21.1663
10.5582 250524 21.2364
10.5747 252690 21.3233
10.5912 250686 21.2248
10.6077 251645 21.2451
10.6241 251817 21.2183
10.6406 250837 21.1566
10.6571 255606 21.333
10.6735 252864 21.2133
10.69 256832 21.3475
10.7065 260505 21.5024
10.7229 266629 21.7496
10.7394 281194 22.3466
10.7559 325107 24.016
10.7723 567936 31.741
10.7888 1.19298e+06 45.9473
10.8053 756950 36.6197
10.8217 357834 25.1614
10.8382 285393 22.4468
10.8547 270255 21.832
10.8711 261640 21.4628
10.8876 255649 21.2016
10.9041 255187 21.1695
10.9206 252878 21.0655
10.937 255158 21.1792
10.9535 253426 21.1401
10.97 251983 21.0931
10.9864 249968 20.9997
11.0029 250101 21.0031
11.0194 253870 21.1594
11.0358 251622 21.0775
11.0523 252086 21.1008
11.0688 251805 21.0858
11.0852 251385 21.0867
11.1017 252807 21.1351
11.1182 250938 21.0682
11.1346 251303 21.0841
11.1511 252168 21.1267
11.1676 251346 21.0972
11.184 250989 21.0907
11.2005 251549 21.1202
11.217 251606 21.1233
11.2334 251511 21.1215
11.2499 250065 21.074
11.2664 250256 21.0781
11.2829 252786 21.1819
11.2993 251199 21.1294
11.3158 250457 21.1051
11.3323 252973 21.205
11.3487 253843 21.2516
11.3652 250652 21.1132
11.3817 253144 21.2345
11.3981 252288 21.1829
11.4146 253667 21.2696
11.4311 251441 21.1557
11.4475 252553 21.2256
11.464 254205 21.2935
11.4805 255299 21.3402
11.4969 255245 21.3393
11.5134 254575 21.3252
11.5299 255847 21.9422
11.5463 255569 22.3485
11.5628 256921 22.7302
11.5793 258400 23.0449
11.5958 259462 23.3365
11.6122 261568 23.6615
11.6287 263898 23.9668
11.6452 265206 24.2413
11.6616 269632 24.636
11.6781 275523 25.0913
11.6946 292564 26.0587
11.711 325558 27.6839
11.7275 437912 32.3458
11.744 1.01097e+06 48.1132
11.7604 2.24952e+06 70.4955
11.7769 1.31117e+06 53.2566
11.7934 503163 32.7865
11.8098 343529 26.9291
11.8263 298596 24.9618
11.8428 283464 24.1759
11.8592 274322 23.7231
11.8757 268274 23.3847
11.8922 267901 23.2681
11.9086 265376 23.0827
11.9251 263386 22.9459
11.9416 263998 22.9465
11.9581 266483 23.0181
11.9745 270672 23.1664
11.991 274620 23.3078
12.0075 286807 23.7974
12.0239 319243 25.0762
12.0404 456356 30.0294
12.0569 1.08924e+06 46.417
12.0733 1.48627e+06 54.2018
12.0898 627598 35.2203
12.1063 351459 26.3815
12.1227 294922 24.1942
12.1392 277047 23.4364
12.1557 268004 23.0345
12.1721 263855 22.8584
12.1886 260587 22.6817
12.2051 256385 22.4974
12.2215 257721 22.5456
12.238 256442 22.4867
12.2545 254114 22.3568
12.271 255878 22.4085
12.2874 253879 22.2825
12.3039 254341 22.2776
12.3204 252498 22.1575
12.3368 253531 22.1759
12.3533 254823 22.2281
12.3698 252682 22.0931
12.3862 253430 22.1134
12.4027 252830 22.029
12.4192 252246 22.0004
12.4356 250290 21.8934
12.4521 249384 21.8348
12.4686 251336 21.9034
12.485 249879 21.8123
12.5015 250665 21.8155
12.518 249555 21.7355
12.5344 250185 21.7348
12.5509 252082 21.7921
12.5674 250522 21.7099
12.5839 251117 21.7227
12.6003 249651 21.6407
12.6168 250250 21.6659
12.6333 251847 21.7442
12.6497 249467 21.6436
12.6662 249496 21.6348
12.6827 250252 21.6544
12.6991 249334 21.6159
12.7156 249470 21.6198
12.7321 252238 21.7437
12.7485 250379 21.6479
12.765 252044 21.7167
12.7815 250586 21.6466
12.7979 249131 21.5915
12.8144 250869 21.6503
12.8309 251125 21.6693
12.8473 248833 21.5599
12.8638 251505 21.6815
12.8803 251987 21.6913
12.8967 253301 21.7296
12.9132 251130 21.6483
12.9297 251223 21.6402
12.9462 252469 21.7178
12.9626 251934 21.6937
12.9791 251992 21.7139
12.9956 253168 21.7542
13.012 252383 21.7183
13.0285 254003 21.7849
13.045 253066 21.7526
13.0614 253973 21.788
13.0779 256069 21.909
13.0944 258045 21.9825
13.1108 263442 22.2195
13.1273 268225 22.4174
13.1438 274758 22.6958
13.1602 291226 23.3581
13.1767 329042 24.8341
13.1932 458003 29.2933
13.2096 1.0741e+06 44.876
13.2261 2.03652e+06 61.7758
13.2426 1.07777e+06 44.9606
13.2591 459547 29.3584
13.2755 328068 24.7925
13.292 291985 23.4056
13.3085 275047 22.6927
13.3249 267052 22.4091
13.3414 262697 22.1942
13.3579 258182 22.0146
13.3743 257203 21.9584
13.3908 253883 21.8274
13.4073 255865 21.9162
13.4237 254730 21.8618
13.4402 254394 21.8473
13.4567 255474 21.8947
13.4731 250405 21.669
13.4896 250424 21.6757
13.5061 250784 21.6913
13.5225 250203 21.6719
13.539 251381 21.7229
13.5555 251456 21.7208
13.5719 250884 21.6932
13.5884 250536 21.6813
13.6049 252240 21.7638
13.6214 251195 21.7089
13.6378 249768 21.6589
13.6543 250513 21.6953
13.6708 250199 21.6843
13.6872 250551 21.6847
13.7037 251970 21.7569
13.7202 251117 21.7187
13.7366 251631 21.7397
13.7531 250741 21.7104
13.7696 251815 21.7582
13.786 251907 21.7642
13.8025 254651 21.868
13.819 252068 21.7729
13.8354 254477 21.8598
13.8519 254219 21.8833
13.8684 255461 21.9007
13.8848 254610 21.8928
13.9013 257559 21.999
13.9178 259938 22.1069
13.9343 264438 22.3088
13.9507 270994 22.9527
13.9672 283373 24.1451
13.9837 312831 25.8197
14.0001 421428 30.4116
14.0166 925991 45.6415
14.0331 1.72342e+06 62.9476
14.0495 947584 47.2438
14.066 420124 31.7528
14.0825 314974 27.7853
14.0989 284738 26.6216
14.1154 271018 26.2145
14.1319 263261 26.0547
14.1483 258877 26.0244
14.1648 256876 26.0092
14.1813 255291 24.8548
14.1977 254177 24.3816
14.2142 253900 24.0151
14.2307 249951 23.6622
14.2471 253067 23.5929
14.2636 253449 23.4199
14.2801 252005 23.224
14.2966 249891 23.0144
14.313 249809 22.8988
14.3295 251024 22.8587
14.346 247924 22.6531
14.3624 249785 22.642
14.3789 249118 22.5529
14.3954 251932 22.6153
14.4118 250478 22.5532
14.4283 245804 22.3268
14.4448 250513 22.476
14.4612 251640 22.5084
14.4777 247312 22.34
14.4942 249228 22.4171
14.5106 248448 22.3673
14.5271 245723 22.2061
14.5436 247575 22.2869
14.56 250381 22.3788
14.5765 248306 22.2723
14.593 247955 22.2341
14.6095 247326 22.2108
14.6259 248895 22.2641
14.6424 249204 22.2539
14.6589 249478 22.2613
14.6753 248655 22.234
14.6918 249869 22.2681
14.7083 249400 22.2113
14.7247 249183 22.2209
14.7412 248383 22.1772
14.7577 249180 22.1826
14.7741 247947 22.1096
14.7906 248200 22.1249
14.8071 250327 22.2143
14.8235 250243 22.1914
14.84 249173 22.1473
14.8565 251191 22.2269
14.8729 247780 22.0665
14.8894 248330 22.0876
14.9059 250763 22.1913
14.9224 249424 22.1186
14.9388 251655 22.2106
14.9553 251153 22.1877
14.9718 249396 22.1066
14.9882 251356 22.168
15.0047 251413 22.1494
15.0212 250127 22.0964
15.0376 251229 22.154
15.0541 250193 22.0822
15.0706 249485 22.0499
15.087 250199 22.0512
15.1035 248076 21.9579
15.12 252677 22.1495
15.1364 252870 22.1589
15.1529 253124 22.1744
15.1694 252379 22.1273
15.1858 255340 22.2805
15.2023 257584 22.3784
15.2188 261023 22.5848
15.2352 272759 23.0809
15.2517 319524 24.9262
15.2682 508216 31.4101
15.2847 765471 38.5965
15.3011 495337 31.0645
15.3176 316398 24.8404
15.3341 277524 23.2418
15.3505 264482 22.6634
15.367 258561 22.4273
15.3835 256257 22.3073
15.3999 254371 22.2388
15.4164 255751 22.2933
15.4329 253392 22.1975
15.4493 252243 22.1327
15.4658 251208 22.0911
15.4823 252129 22.1214
15.4987 251598 22.0898
15.5152 252595 22.1447
15.5317 251863 22.0966
15.5481 253170 22.1675
15.5646 250040 22.0239
15.5811 252936 22.1466
15.5976 250247 22.0279
15.614 253122 22.164
15.6305 254336 22.2052
15.647 254369 22.2017
15.6634 252317 22.1104
15.6799 254189 22.1955
15.6964 253337 22.1653
15.7128 250962 22.0735
15.7293 253905 22.1729
15.7458 254084 22.194
15.7622 253771 22.1685
15.7787 255404 22.2339
15.7952 256591 22.2901
15.8116 255122 22.2269
15.8281 257103 22.3124
15.8446 258366 22.3651
15.861 260286 22.4474
15.8775 267146 22.738
15.894 269383 22.8344
15.9104 278186 23.2066
15.9269 290822 23.7349
15.9434 333850 25.422
15.9599 499418 31.095
15.9763 1.12647e+06 46.7218
15.9928 1.54756e+06 54.7609
16.0093 722270 37.4044
16.0257 386149 27.3339
16.0422 309287 24.4589
16.0587 286012 23.5213
16.0751 275589 23.0999
16.0916 268969 22.8123
16.1081 267525 22.733
16.1245 266740 22.7267
16.141 270836 22.87
16.1575 276239 23.1063
16.1739 297912 23.9929
16.1904 386585 27.3042
16.2069 694036 36.5306
16.2233 784356 38.7833
16.2398 426992 28.5974
16.2563 303533 24.0634
16.2728 275391 22.9198
16.2892 265534 22.4614
16.3057 262547 22.309
16.3222 259714 22.1428
16.3386 255751 21.9334
16.3551 255256 21.8618
16.3716 254078 21.7792
16.388 255432 22.4729
16.4045 253196 22.9033
16.421 252916 23.2712
16.4374 254394 23.6559
16.4539 253392 23.8874
16.4704 250306 24.014
16.4868 251544 24.3022
16.5033 250947 24.5163
16.5198 251339 24.786
16.5362 251935 25.0533
16.5527 253227 25.367
16.5692 252301 25.5618
16.5857 253143 25.8267
16.6021 250103 25.0869
16.6186 249730 24.3464
16.6351 250337 23.9867
16.6515 252797 23.8184
16.668 251020 23.5652
16.6845 250857 23.4196
16.7009 251511 23.3437
16.7174 252265 23.2822
16.7339 251576 23.1739
16.7503 252673 23.1497
16.7668 249952 22.978
16.7833 250731 22.9388
16.7997 251789 22.9616
16.8162 252741 23.0316
16.8327 251828 22.9515
16.8491 252165 22.9679
16.8656 253982 23.0685
16.8821 252730 23.0077
16.8985 253557 22.9986
16.915 251436 22.8741
16.9315 253113 22.9139
16.948 254501 22.9614
16.9644 253375 22.8851
16.9809 253624 22.8811
16.9974 258692 23.1122
17.0138 262251 23.2287
17.0303 265975 23.3679
17.0468 281256 24.0123
17.0632 320350 25.6111
17.0797 499255 31.933
17.0962 899327 42.8838
17.1126 698305 37.7437
17.1291 364865 27.2643
17.1456 291224 24.3391
17.162 271921 23.5048
17.1785 264979 23.1954
17.195 258607 22.8906
17.2114 257575 22.8498
17.2279 255371 22.7308
17.2444 252664 22.6031
17.2609 256587 22.7424
17.2773 254320 22.6368
17.2938 251170 22.4733
17.3103 252359 22.5217
17.3267 252356 22.5111
17.3432 250995 22.4436
17.3597 252198 22.4595
17.3761 252188 22.4674
17.3926 251932 22.4339
17.4091 248638 22.2783
17.4255 253027 22.4791
17.442 252128 22.4232
17.4585 252646 22.4454
17.4749 251985 22.4245
17.4914 251410 22.3988
17.5079 252049 22.4208
17.5243 252614 22.4556
17.5408 250046 22.3295
17.5573 252282 22.4386
17.5737 253613 22.4975
17.5902 250211 22.3458
17.6067 253160 22.4694
17.6232 257103 22.6403
17.6396 257718 22.6671
17.6561 259325 22.732
17.6726 264730 22.9742
17.689 281141 23.6387
17.7055 336741 25.8834
17.722 532115 32.5239
17.7384 676744 36.6678
17.7549 426964 29.1199
17.7714 305628 24.6279
17.7878 275146 23.3767
17.8043 263340 22.8612
17.8208 258336 22.6682
17.8372 260743 22.733
17.8537 257199 22.5803
17.8702 261379 22.7649
17.8866 266954 22.9983
17.9031 283165 23.6971
17.9196 359535 26.6837
17.9361 541758 32.7521
17.9525 491972 31.1855
17.969 318846 25.111
17.9855 275425 23.34
18.0019 261861 22.7597
18.0184 256402 22.5116
18.0349 254685 22.442
18.0513 256706 22.5312
18.0678 255061 22.4512
18.0843 252553 22.3317
18.1007 252288 22.3177
18.1172 251110 22.2718
18.1337 251930 22.289
18.1501 251092 22.2583
18.1666 249960 22.2045
18.1831 250800 22.2392
18.1995 247448 22.0986
18.216 249702 22.1832
18.2325 250806 22.2259
18.249 250293 22.2103
18.2654 250985 22.2359
18.2819 250345 22.2136
18.2984 249479 22.1622
18.3148 249834 22.1502
18.3313 251094 22.1629
18.3478 249755 22.08
18.3642 247857 21.9655
18.3807 250136 22.0383
18.3972 250918 22.0454
18.4136 252487 22.0855
18.4301 250434 21.9495
18.4466 249916 21.8632
18.463 248679 21.7439
18.4795 250740 21.7882
18.496 251393 21.7565
18.5124 249345 21.6473
18.5289 249508 21.6186
18.5454 250666 21.6541
18.5618 250461 21.6075
18.5783 251626 21.6505
18.5948 250752 21.5727
18.6113 249887 21.5144
18.6277 249752 21.5142
18.6442 249643 21.5052
18.6607 251250 21.58
18.6771 254506 21.7136
18.6936 255315 21.7632
18.7101 269678 22.3443
18.7265 308858 23.9352
18.743 386478 26.7542
18.7595 349354 25.4619
18.7759 281069 22.8123
18.7924 260926 21.9923
18.8089 254686 21.868
18.8253 253141 22.7699
18.8418 249803 23.0911
18.8583 251052 23.5695
18.8747 251483 23.9662
18.8912 252111 24.2885
18.9077 252315 24.6098
18.9242 250186 24.8099
18.9406 248675 25.0487
18.9571 252271 25.5106
18.9736 251634 25.7398
18.99 248894 25.8118
19.0065 249715 26.0448
19.023 252776 26.4402
19.0394 252587 26.5892
19.0559 251156 26.7467
19.0724 249665 26.9023
19.0888 252363 27.3418
19.1053 253863 27.6519
19.1218 252697 27.8322
19.1382 255839 28.2613
19.1547 253456 28.3901
19.1712 254247 28.69
19.1876 256708 29.095
19.2041 256829 29.3574
19.2206 256147 29.6024
19.237 257034 29.8987
19.2535 264526 30.6276
19.27 276393 31.5984
19.2865 299793 33.197
19.3029 410250 39.2239
19.3194 728843 52.7098
19.3359 817051 56.3165
19.3523 449007 42.1751
19.3688 312137 35.4526
19.3853 280789 33.9692
19.4017 268661 33.5122
19.4182 263707 33.5587
19.4347 262251 33.7717
19.4511 264381 34.2341
19.4676 269218 34.8711
19.4841 286982 36.3643
19.5005 355713 40.8793
19.517 472373 47.5905
19.5335 395188 43.9619
19.5499 298410 38.5949
19.5664 270526 37.0796
19.5829 262299 36.8277
19.5994 260437 37.084
19.6158 256123 37.1931
19.6323 252401 37.3518
19.6488 254373 37.7461
19.6652 254490 38.1394
19.6817 255469 38.7055
19.6982 252188 38.8334
19.7146 253320 39.4002
19.7311 253061 39.8246
19.7476 254332 40.3689
19.764 253753 40.8853
19.7805 253740 41.2937
19.797 252791 41.7743
19.8134 250466 42.0812
19.8299 253461 42.8788
19.8464 250116 43.1641
19.8628 253966 44.2505
19.8793 254186 44.9397
19.8958 247443 44.7594
19.9122 251795 45.7743
19.9287 255775 46.8191
19.9452 253980 47.3462
19.9617 252320 47.9433
19.9781 251432 48.6099
19.9946 252611 49.5349
20.0111 253280 50.4195
20.0275 252895 51.2487
20.044 254388 52.331
20.0605 251465 53.0701
20.0769 258424 54.8261
20.0934 254103 55.3341
20.1099 252111 56.2471
20.1263 253449 57.5807
20.1428 255082 59.0522
20.1593 252118 60.0382
20.1757 256882 67.2325
20.1922 282479 131.897
20.2087 0 0
20.2251 0 0
20.2416 0 0
20.2581 0 0
20.2746 0 0
20.291 0 0
20.3075 0 0
20.324 0 0
20.3404 0 0
20.3569 0 0
20.3734 0 0
20.3898 0 0
20.4063 0 0
20.4228 0 0
20.4392 0 0
20.4557 0 0
20.4722 0 0
20.4886 0 0
20.5051 0 0
20.5216 0 0
20.538 0 0
20.5545 0 0
20.571 0 0
20.5833 0 0