File: exp_pxrd_data/crystalyze/NaCu2P2/Na_Cu2_P2_raw.xy
   10     1209
   10.1     1233
   10.2     1178
   10.3     1223
   10.4     1168
   10.5     1204
   10.6     1203
   10.7     1198
   10.8     1234
   10.9     1241
   11     1249
   11.1     1215
   11.2     1242
   11.3     1199
   11.4     1179
   11.5     1209
   11.6     1224
   11.7     1177
   11.8     1285
   11.9     1234
   12     1238
   12.1     1178
   12.2     1195
   12.3     1237
   12.4     1211
   12.5     1177
   12.6     1218
   12.7     1208
   12.8     1158
   12.9     1235
   13     1171
   13.1     1236
   13.2     1178
   13.3     1201
   13.4     1227
   13.5     1180
   13.6     1184
   13.7     1230
   13.8     1202
   13.9     1143
   14     1159
   14.1     1144
   14.2     1145
   14.3     1213
   14.4     1181
   14.5     1212
   14.6     1117
   14.7     1208
   14.8     1242
   14.9     1153
   15     1201
   15.1     1135
   15.2     1160
   15.3     1179
   15.4     1199
   15.5     1159
   15.6     1162
   15.7     1109
   15.8     1177
   15.9     1162
   16     1113
   16.1     1122
   16.2     1180
   16.3     1118
   16.4     1135
   16.5     1167
   16.6     1134
   16.7     1136
   16.8     1148
   16.9     1219
   17     1159
   17.1     1134
   17.2     1127
   17.3     1197
   17.4     1153
   17.5     1112
   17.6     1108
   17.7     1106
   17.8     1093
   17.9     1169
   18     1228
   18.1     1241
   18.2     1367
   18.3     1606
   18.4     2940
   18.5     8648
   18.6     12947
   18.7     1530
   18.8     1241
   18.9     1216
   19     1206
   19.1     1171
   19.2     1120
   19.3     1150
   19.4     1151
   19.5     1130
   19.6     1133
   19.7     1190
   19.8     1151
   19.9     1190
   20     1110
   20.1     1152
   20.2     1134
   20.3     1089
   20.4     1140
   20.5     1133
   20.6     1154
   20.7     1175
   20.8     1161
   20.9     1123
   21     1164
   21.1     1111
   21.2     1150
   21.3     1082
   21.4     1124
   21.5     1096
   21.6     1131
   21.7     1125
   21.8     1112
   21.9     1102
   22     1077
   22.1     1063
   22.2     1085
   22.3     1076
   22.4     1155
   22.5     1108
   22.6     1063
   22.7     1107
   22.8     1063
   22.9     1069
   23     1086
   23.1     1112
   23.2     1094
   23.3     1058
   23.4     1095
   23.5     1122
   23.6     1090
   23.7     1059
   23.8     1114
   23.9     1208
   24     1715
   24.1     4162
   24.2     1609
   24.3     1155
   24.4     1109
   24.5     1099
   24.6     1061
   24.7     1117
   24.8     1088
   24.9     1063
   25     1079
   25.1     1108
   25.2     1106
   25.3     1050
   25.4     1080
   25.5     1075
   25.6     1029
   25.7     1058
   25.8     1046
   25.9     1085
   26     1061
   26.1     1105
   26.2     1036
   26.3     1100
   26.4     1082
   26.5     1090
   26.6     1059
   26.7     1110
   26.8     1034
   26.9     1073
   27     1093
   27.1     1093
   27.2     1070
   27.3     1064
   27.4     1041
   27.5     1026
   27.6     1053
   27.7     1079
   27.8     1133
   27.9     1045
   28     1064
   28.1     1120
   28.2     1088
   28.3     1064
   28.4     1064
   28.5     1065
   28.6     1062
   28.7     1068
   28.8     1059
   28.9     1056
   29     1062
   29.1     1061
   29.2     1058
   29.3     1069
   29.4     1082
   29.5     1034
   29.6     1056
   29.7     1106
   29.8     1071
   29.9     1069
   30     1088
   30.1     1068
   30.2     1077
   30.3     1051
   30.4     1039
   30.5     1054
   30.6     1033
   30.7     1057
   30.8     1035
   30.9     1082
   31     1079
   31.1     1039
   31.2     1077
   31.3     1077
   31.4     1094
   31.5     1181
   31.6     2299
   31.7     1904
   31.8     1094
   31.9     1083
   32     1048
   32.1     1084
   32.2     1087
   32.3     1027
   32.4     1041
   32.5     1061
   32.6     1034
   32.7     1085
   32.8     1072
   32.9     1060
   33     1081
   33.1     1098
   33.2     1084
   33.3     1052
   33.4     1081
   33.5     1051
   33.6     1093
   33.7     1074
   33.8     1078
   33.9     1081
   34     1051
   34.1     1143
   34.2     1183
   34.3     1173
   34.4     1089
   34.5     1054
   34.6     1167
   34.7     1029
   34.8     1081
   34.9     1092
   35     1109
   35.1     1042
   35.2     1110
   35.3     1123
   35.4     1098
   35.5     1057
   35.6     1031
   35.7     1108
   35.8     1224
   35.9     1420
   36     4126
   36.1     3242
   36.2     1396
   36.3     1137
   36.4     1179
   36.5     1217
   36.6     1253
   36.7     1456
   36.8     2767
   36.9     17218
   37     10276
   37.1     1815
   37.2     1314
   37.3     1196
   37.4     1174
   37.5     1253
   37.6     2004
   37.7     2205
   37.8     1479
   37.9     1153
   38     1131
   38.1     1112
   38.2     1153
   38.3     1094
   38.4     1120
   38.5     1101
   38.6     1102
   38.7     1091
   38.8     1085
   38.9     1051
   39     1062
   39.1     1074
   39.2     1081
   39.3     1096
   39.4     1067
   39.5     1028
   39.6     1078
   39.7     1039
   39.8     1089
   39.9     1079
   40     1090
   40.1     1068
   40.2     1078
   40.3     1068
   40.4     1080
   40.5     1060
   40.6     1060
   40.7     1112
   40.8     1078
   40.9     1061
   41     1075
   41.1     1104
   41.2     1078
   41.3     1026
   41.4     1099
   41.5     1048
   41.6     1061
   41.7     1104
   41.8     1104
   41.9     1072
   42     1042
   42.1     1027
   42.2     1060
   42.3     1056
   42.4     1100
   42.5     1020
   42.6     1047
   42.7     1096
   42.8     1025
   42.9     1076
   43     1056
   43.1     1043
   43.2     1046
   43.3     1096
   43.4     1028
   43.5     1074
   43.6     1044
   43.7     1117
   43.8     1079
   43.9     1110
   44     1036
   44.1     1111
   44.2     1059
   44.3     1098
   44.4     1061
   44.5     1096
   44.6     1087
   44.7     1068
   44.8     1073
   44.9     1169
   45     1119
   45.1     1280
   45.2     1670
   45.3     7785
   45.4     3513
   45.5     2093
   45.6     1223
   45.7     1149
   45.8     1126
   45.9     1125
   46     1059
   46.1     1084
   46.2     1109
   46.3     1147
   46.4     1139
   46.5     1108
   46.6     1108
   46.7     1068
   46.8     1093
   46.9     1085
   47     1087
   47.1     1085
   47.2     1042
   47.3     1041
   47.4     1014
   47.5     1049
   47.6     1070
   47.7     1081
   47.8     1069
   47.9     1084
   48     1096
   48.1     1126
   48.2     1110
   48.3     1052
   48.4     1074
   48.5     1105
   48.6     1113
   48.7     1081
   48.8     1081
   48.9     1083
   49     1094
   49.1     1156
   49.2     1227
   49.3     1695
   49.4     4140
   49.5     2484
   49.6     1252
   49.7     1253
   49.8     1353
   49.9     3149
   50     7483
   50.1     6901
   50.2     1456
   50.3     1148
   50.4     1102
   50.5     1091
   50.6     1095
   50.7     1117
   50.8     1074
   50.9     1069
   51     1083
   51.1     1104
   51.2     1054
   51.3     1086
   51.4     1039
   51.5     1060
   51.6     1061
   51.7     1069
   51.8     1093
   51.9     1110
   52     1521
   52.1     1242
   52.2     1098
   52.3     1033
   52.4     1016
   52.5     1062
   52.6     1090
   52.7     1045
   52.8     1091
   52.9     1117
   53     1291
   53.1     4162
   53.2     1707
   53.3     1501
   53.4     1092
   53.5     1086
   53.6     1061
   53.7     1081
   53.8     1051
   53.9     1051
   54     1075
   54.1     1008
   54.2     1028
   54.3     1088
   54.4     1076
   54.5     1041
   54.6     1038
   54.7     1052
   54.8     1081
   54.9     1012
   55     1044
   55.1     1074
   55.2     1045
   55.3     1016
   55.4     1023
   55.5     1066
   55.6     1025
   55.7     1060
   55.8     1068
   55.9     1052
   56     1064
   56.1     1093
   56.2     1009
   56.3     1064
   56.4     1074
   56.5     1078
   56.6     1041
   56.7     1108
   56.8     1019
   56.9     1045
   57     1073
   57.1     1062
   57.2     1053
   57.3     1041
   57.4     1052
   57.5     1075
   57.6     1100
   57.7     1067
   57.8     1125
   57.9     3020
   58     1287
   58.1     1594
   58.2     1051
   58.3     1037
   58.4     999
   58.5     1046
   58.6     1063
   58.7     1044
   58.8     1063
   58.9     1069
   59     1033
   59.1     1155
   59.2     2032
   59.3     1326
   59.4     2085
   59.5     1076
   59.6     1060
   59.7     1046
   59.8     1062
   59.9     1095
   60     1084
   60.1     1061
   60.2     1071
   60.3     1603
   60.4     1592
   60.5     1816
   60.6     1171
   60.7     1051
   60.8     1063
   60.9     1044
   61     1008
   61.1     1102
   61.2     1066
   61.3     1066
   61.4     1056
   61.5     1027
   61.6     996
   61.7     1022
   61.8     1035
   61.9     1043
   62     1086
   62.1     1010
   62.2     1037
   62.3     980
   62.4     1030
   62.5     1032
   62.6     1081
   62.7     1023
   62.8     1091
   62.9     1046
   63     1033
   63.1     1024
   63.2     1083
   63.3     1057
   63.4     1005
   63.5     1007
   63.6     980
   63.7     1041
   63.8     1030
   63.9     1061
   64     984
   64.1     1082
   64.2     1039
   64.3     1016
   64.4     1071
   64.5     1035
   64.6     1013
   64.7     1041
   64.8     1052
   64.9     1074
   65     1026
   65.1     1017
   65.2     981
   65.3     1023
   65.4     1068
   65.5     1073
   65.6     1054
   65.7     1072
   65.8     1092
   65.9     1137
   66     2059
   66.1     2003
   66.2     1928
   66.3     1351
   66.4     1091
   66.5     1062
   66.6     1084
   66.7     1080
   66.8     1065
   66.9     1052
   67     1110
   67.1     1037
   67.2     1084
   67.3     1095
   67.4     1266
   67.5     3268
   67.6     1276
   67.7     2045
   67.8     1078
   67.9     1085
   68     1086
   68.1     1019
   68.2     1055
   68.3     1073
   68.4     1037
   68.5     1054
   68.6     1023
   68.7     1088
   68.8     1040
   68.9     1079
   69     1099
   69.1     1097
   69.2     1260
   69.3     2109
   69.4     1207
   69.5     1565
   69.6     1069
   69.7     1021
   69.8     1044
   69.9     1062
   70     1028
   70.1     1088
   70.2     1048
   70.3     1001
   70.4     1052
   70.5     1019
   70.6     1017
   70.7     1052
   70.8     1090
   70.9     1125
   71     993
   71.1     1086
   71.2     1055
   71.3     1062
   71.4     1142
   71.5     1068
   71.6     1079
   71.7     1051
   71.8     1002
   71.9     1088
   72     1016
   72.1     1083
   72.2     1095
   72.3     1704
   72.4     1886
   72.5     1365
   72.6     1678
   72.7     1056
   72.8     1056
   72.9     1042
   73     1034
   73.1     1052
   73.2     1026
   73.3     1051
   73.4     1023
   73.5     1005
   73.6     1003
   73.7     1089
   73.8     1038
   73.9     1040
   74     1054
   74.1     1068
   74.2     1020
   74.3     1042
   74.4     1072
   74.5     1060
   74.6     1050
   74.7     1017
   74.8     1041
   74.9     1023
   75     1015
   75.1     1153
   75.2     1042
   75.3     1113
   75.4     1082
   75.5     1032
   75.6     1062
   75.7     1066
   75.8     1071
   75.9     1028
   76     1109
   76.1     1040
   76.2     1089
   76.3     1062
   76.4     1494
   76.5     1695
   76.6     1226
   76.7     1700
   76.8     1088
   76.9     1096
   77     1029
   77.1     1011
   77.2     1030
   77.3     1072
   77.4     1027
   77.5     1131
   77.6     1327
   77.7     1186
   77.8     1203
   77.9     1166
   78     1265
   78.1     2503
   78.2     2710
   78.3     1502
   78.4     2967
   78.5     1232
   78.6     1444
   78.7     1146
   78.8     1163
   78.9     1106
   79     1043
   79.1     1097
   79.2     1025
   79.3     1079
   79.4     1054
   79.5     1071
   79.6     1104
   79.7     1062
   79.8     1076
   79.9     1024
   80     1038
   80.1     1064
   80.2     1090
   80.3     1111
   80.4     2077
   80.5     1145
   80.6     1247
   80.7     1260
   80.8     1057
   80.9     1035
   81     1029
   81.1     1028
   81.2     1044
   81.3     1045
   81.4     1034
   81.5     1040
   81.6     1052
   81.7     1010
   81.8     1029
   81.9     1055
   82     1083
   82.1     1029
   82.2     1042
   82.3     1049
   82.4     1079
   82.5     1052
   82.6     1035
   82.7     1023
   82.8     1061
   82.9     1039
   83     1028
   83.1     1108
   83.2     1007
   83.3     1044
   83.4     1049
   83.5     1052
   83.6     991
   83.7     1052
   83.8     1056
   83.9     1040
   84     1049
   84.1     1012
   84.2     1028
   84.3     1084
   84.4     1012
   84.5     1024
   84.6     1079
   84.7     1105
   84.8     1029
   84.9     981
   85     1053
   85.1     1058
   85.2     1035
   85.3     1038
   85.4     1043
   85.5     1048
   85.6     1013
   85.7     1070
   85.8     1028
   85.9     1070
   86     1029
   86.1     1019
   86.2     1051
   86.3     1063
   86.4     1027
   86.5     1002
   86.6     1083
   86.7     1074
   86.8     1060
   86.9     1057
   87     1100
   87.1     1424
   87.2     3592
   87.3     1294
   87.4     1493
   87.5     1868
   87.6     1128
   87.7     1087
   87.8     1071
   87.9     1063
   88     1038
   88.1     1028
   88.2     1057
   88.3     1011
   88.4     1039
   88.5     1082
   88.6     1073
   88.7     1073
   88.8     1083
   88.9     1112
   89     1117
   89.1     1086
   89.2     1066
   89.3     1037
   89.4     1075
   89.5     1082
   89.6     1174
   89.7     1199
   89.8     1023
   89.9     1192
   90     1109
   90.1     1027
   90.2     1039
   90.3     1047
   90.4     1034
   90.5     1068
   90.6     1027
   90.7     1118
   90.8     1064
   90.9     1062
   91     1042
   91.1     1048
   91.2     1015
   91.3     1042
   91.4     1003
   91.5     1002
   91.6     1048
   91.7     1044
   91.8     1034
   91.9     1039
   92     1001
   92.1     1041
   92.2     1035
   92.3     1057
   92.4     1019
   92.5     1023
   92.6     1070
   92.7     1033
   92.8     1029
   92.9     1049
   93     1001
   93.1     1030
   93.2     1061
   93.3     1060
   93.4     1048
   93.5     1165
   93.6     1770
   93.7     1197
   93.8     1097
   93.9     1422
   94     1146
   94.1     1040
   94.2     1067
   94.3     1097
   94.4     1095
   94.5     1062
   94.6     1042
   94.7     1211
   94.8     1219
   94.9     1122
   95     1145
   95.1     1164
   95.2     1111
   95.3     1038
   95.4     1017
   95.5     1084
   95.6     1016
   95.7     1016
   95.8     1069
   95.9     1000
   96     1043
   96.1     1035
   96.2     1016
   96.3     1051
   96.4     1086
   96.5     988
   96.6     1068
   96.7     1085
   96.8     1012
   96.9     1026
   97     1035
   97.1     1063
   97.2     1089
   97.3     1091
   97.4     1452
   97.5     2863
   97.6     1333
   97.7     1255
   97.8     1733
   97.9     1308
   98     1100
   98.1     1039
   98.2     1081
   98.3     1049
   98.4     1070
   98.5     1039
   98.6     1025
   98.7     1071
   98.8     1048
   98.9     1022
   99     1078
   99.1     1071
   99.2     1026
   99.3     1030
   99.4     1057
   99.5     1058
   99.6     1060
   99.7     1040
   99.8     1058
   99.9     1027
   100     1018
   100.1     1042
   100.2     1077
   100.3     1049
   100.4     1069
   100.5     1004
   100.6     1074
   100.7     1146
   100.8     1421
   100.9     1589
   101     1132
   101.1     1163
   101.2     1437
   101.3     1113
   101.4     1080
   101.5     1080
   101.6     1013
   101.7     1083
   101.8     1084
   101.9     1025
   102     1111
   102.1     1144
   102.2     1862
   102.3     1245
   102.4     1128
   102.5     1167
   102.6     1345
   102.7     1066
   102.8     1060
   102.9     1007
   103     1044
   103.1     1035
   103.2     1073
   103.3     1062
   103.4     1041
   103.5     1032
   103.6     1056
   103.7     1061
   103.8     1083
   103.9     1315
   104     1117
   104.1     1091
   104.2     1110
   104.3     1177
   104.4     1042
   104.5     1070
   104.6     1043
   104.7     1061
   104.8     1040
   104.9     1059
   105     1059
   105.1     1047
   105.2     1062
   105.3     1084
   105.4     1018
   105.5     1034
   105.6     1045
   105.7     1021
   105.8     1041
   105.9     1027
   106     1150
   106.1     1088
   106.2     1044
   106.3     1068
   106.4     1062
   106.5     1095
   106.6     1034
   106.7     1057
   106.8     1142
   106.9     1455
   107     1221
   107.1     1046
   107.2     1086
   107.3     1253
   107.4     1090
   107.5     1038
   107.6     1059
   107.7     1108
   107.8     1028
   107.9     1059
   108     1051
   108.1     1067
   108.2     1069
   108.3     1026
   108.4     1074
   108.5     1041
   108.6     1062
   108.7     1024
   108.8     1056
   108.9     1039
   109     1039
   109.1     1022
   109.2     1037
   109.3     1093
   109.4     1013
   109.5     1014
   109.6     1056
   109.7     1071
   109.8     1021
   109.9     1082
   110     1061
   110.1     1071
   110.2     1090
   110.3     1103
   110.4     1075
   110.5     1027
   110.6     1084
   110.7     1078
   110.8     1081
   110.9     1074
   111     1041
   111.1     1059
   111.2     994
   111.3     1037
   111.4     1079
   111.5     1057
   111.6     1075
   111.7     1044
   111.8     1102
   111.9     1092
   112     1043
   112.1     1030
   112.2     1091
   112.3     1324
   112.4     1147
   112.5     1069
   112.6     1132
   112.7     1148
   112.8     1266
   112.9     1706
   113     1185
   113.1     1117
   113.2     1133
   113.3     1291
   113.4     1277
   113.5     1057
   113.6     1057
   113.7     1084
   113.8     1140
   113.9     1048
   114     1054
   114.1     1119
   114.2     1072
   114.3     1060
   114.4     1129
   114.5     1101
   114.6     1064
   114.7     1064
   114.8     1094
   114.9     1093
   115     1112
   115.1     1144
   115.2     1407
   115.3     2301
   115.4     1439
   115.5     1158
   115.6     1160
   115.7     1368
   115.8     1555
   115.9     1187
   116     1106
   116.1     1094
   116.2     1082
   116.3     1045
   116.4     1108
   116.5     1093
   116.6     1112
   116.7     1259
   116.8     2113
   116.9     1375
   117     1157
   117.1     1136
   117.2     1297
   117.3     1456
   117.4     1194
   117.5     1107
   117.6     1065
   117.7     1043
   117.8     1107
   117.9     1070
   118     1086
   118.1     1083
   118.2     1106
   118.3     1089
   118.4     1070
   118.5     1074
   118.6     1089
   118.7     1108
   118.8     1140
   118.9     1224
   119     1757
   119.1     1612
   119.2     1163
   119.3     1158
   119.4     1158
   119.5     1491
   119.6     1306
   119.7     1076
   119.8     1091
   119.9     1095
   120     1061
   120.1     1051
   120.2     1072
   120.3     1106
   120.4     1073
   120.5     1055
   120.6     1071
   120.7     1027
   120.8     1053
   120.9     1049
   121     1104
   121.1     1098
   121.2     1046
   121.3     1056
   121.4     1044
   121.5     1052
   121.6     1063
   121.7     1050
   121.8     1061
   121.9     1061
   122     1061
   122.1     1053
   122.2     1112
   122.3     1088
   122.4     1105
   122.5     1299
   122.6     1212
   122.7     1081
   122.8     1112
   122.9     1163
   123     1493
   123.1     1461
   123.2     1147
   123.3     1118
   123.4     1109
   123.5     1238
   123.6     1308
   123.7     1100
   123.8     1060
   123.9     1058
   124     1081
   124.1     1121
   124.2     1076
   124.3     1067
   124.4     1099
   124.5     1046
   124.6     1058
   124.7     1072
   124.8     1077
   124.9     1055
   125     1091
   125.1     1099
   125.2     1103
   125.3     1034
   125.4     1076
   125.5     1100
   125.6     1075
   125.7     1125
   125.8     1111
   125.9     1170
   126     1473
   126.1     1313
   126.2     1120
   126.3     1093
   126.4     1088
   126.5     1152
   126.6     1311
   126.7     1146
   126.8     1140
   126.9     1109
   127     1060
   127.1     1052
   127.2     1096
   127.3     1085
   127.4     1090
   127.5     1104
   127.6     1089
   127.7     1064
   127.8     1080
   127.9     1088
   128     1081
   128.1     1087
   128.2     1077
   128.3     1090
   128.4     1097
   128.5     1104
   128.6     1066
   128.7     1094
   128.8     1066
   128.9     1043
   129     1079
   129.1     1014
   129.2     1055
   129.3     1025
   129.4     1023
   129.5     1065
   129.6     1102
   129.7     1065
   129.8     1033
   129.9     1045
   130     1036
   130.1     1054
   130.2     1143
   130.3     1057
   130.4     1073
   130.5     1072
   130.6     1101
   130.7     1066
   130.8     1091
   130.9     1104
   131     1221
   131.1     1592
   131.2     1201
   131.3     1103
   131.4     1065
   131.5     1092
   131.6     1129
   131.7     1300
   131.8     1208
   131.9     1113
   132     1054
   132.1     1035
   132.2     1045
   132.3     1089
   132.4     1083
   132.5     1068
   132.6     1040
   132.7     1095
   132.8     1097
   132.9     1048
   133     1046
   133.1     1089
   133.2     1077
   133.3     1056
   133.4     1118
   133.5     1048
   133.6     1032
   133.7     1052
   133.8     1062
   133.9     1205
   134     1160
   134.1     1143
   134.2     1075
   134.3     1091
   134.4     1092
   134.5     1107
   134.6     1146
   134.7     1112
   134.8     1118
   134.9     1055
   135     1051
   135.02     1051