File: exp_pxrd_data/decifer/Fe2O3/AFS012d_a850C.xy
5.00000 22.000
5.09930 22.000
5.19861 24.000
5.29791 18.000
5.39721 21.000
5.49652 28.000
5.59582 18.000
5.69512 25.000
5.79443 26.000
5.89373 15.000
5.99304 22.000
6.09234 24.000
6.19164 24.000
6.29095 26.000
6.39025 22.000
6.48955 34.000
6.58886 16.000
6.68816 29.000
6.78746 24.000
6.88677 27.000
6.98607 24.000
7.08537 28.000
7.18468 27.000
7.28398 18.000
7.38328 23.000
7.48259 27.000
7.58189 24.000
7.68119 26.000
7.78050 19.000
7.87980 27.000
7.97911 23.000
8.07841 19.000
8.17771 29.000
8.27702 27.000
8.37632 28.000
8.47562 14.000
8.57493 23.000
8.67423 24.000
8.77353 19.000
8.87284 24.000
8.97214 20.000
9.07144 31.000
9.17075 26.000
9.27005 16.000
9.36935 21.000
9.46866 16.000
9.56796 21.000
9.66727 23.000
9.76657 14.000
9.86587 20.000
9.96518 23.000
10.06448 17.000
10.16378 15.000
10.26309 22.000
10.36239 22.000
10.46169 15.000
10.56100 19.000
10.66030 23.000
10.75960 18.000
10.85891 28.000
10.95821 15.000
11.05751 18.000
11.15682 22.000
11.25612 20.000
11.35542 20.000
11.45473 13.000
11.55403 22.000
11.65334 18.000
11.75264 19.000
11.85194 17.000
11.95125 19.000
12.05055 17.000
12.14985 21.000
12.24916 29.000
12.34846 25.000
12.44776 21.000
12.54707 16.000
12.64637 19.000
12.74567 22.000
12.84498 14.000
12.94428 20.000
13.04358 11.000
13.14289 25.000
13.24219 19.000
13.34150 17.000
13.44080 13.000
13.54010 15.000
13.63941 27.000
13.73871 14.000
13.83801 18.000
13.93732 16.000
14.03662 14.000
14.13592 21.000
14.23523 25.000
14.33453 18.000
14.43383 20.000
14.53314 17.000
14.63244 12.000
14.73174 18.000
14.83105 11.000
14.93035 12.000
15.02965 12.000
15.12896 11.000
15.22826 18.000
15.32757 21.000
15.42687 17.000
15.52617 15.000
15.62548 18.000
15.72478 19.000
15.82408 24.000
15.92339 24.000
16.02269 13.000
16.12199 21.000
16.22130 14.000
16.32060 16.000
16.41990 20.000
16.51921 15.000
16.61851 15.000
16.71781 11.000
16.81712 21.000
16.91642 16.000
17.01573 18.000
17.11503 23.000
17.21433 15.000
17.31364 21.000
17.41294 16.000
17.51224 14.000
17.61155 19.000
17.71085 26.000
17.81015 16.000
17.90946 17.000
18.00876 19.000
18.10806 18.000
18.20737 9.000
18.30667 20.000
18.40597 21.000
18.50528 24.000
18.60458 17.000
18.70388 24.000
18.80319 15.000
18.90249 19.000
19.00180 12.000
19.10110 18.000
19.20040 17.000
19.29971 19.000
19.39901 23.000
19.49831 21.000
19.59762 17.000
19.69692 20.000
19.79622 20.000
19.89553 22.000
19.99483 19.000
20.09413 19.000
20.19344 17.000
20.29274 22.000
20.39204 24.000
20.49135 13.000
20.59065 19.000
20.68996 16.000
20.78926 16.000
20.88856 13.000
20.98787 23.000
21.08717 15.000
21.18647 17.000
21.28578 21.000
21.38508 18.000
21.48438 18.000
21.58369 23.000
21.68299 23.000
21.78229 12.000
21.88160 21.000
21.98090 16.000
22.08020 26.000
22.17951 19.000
22.27881 18.000
22.37811 21.000
22.47742 24.000
22.57672 16.000
22.67603 29.000
22.77533 17.000
22.87463 25.000
22.97394 26.000
23.07324 21.000
23.17254 22.000
23.27185 23.000
23.37115 15.000
23.47045 25.000
23.56976 26.000
23.66906 23.000
23.76836 23.000
23.86767 26.000
23.96697 51.000
24.06627 52.000
24.16558 38.000
24.26488 25.000
24.36419 16.000
24.46349 24.000
24.56279 29.000
24.66210 19.000
24.76140 15.000
24.86070 20.000
24.96001 17.000
25.05931 16.000
25.15861 19.000
25.25792 10.000
25.35722 18.000
25.45652 17.000
25.55583 24.000
25.65513 29.000
25.75443 22.000
25.85374 22.000
25.95304 15.000
26.05234 20.000
26.15165 19.000
26.25095 17.000
26.35026 17.000
26.44956 15.000
26.54886 19.000
26.64817 27.000
26.74747 20.000
26.84677 20.000
26.94608 18.000
27.04538 18.000
27.14468 19.000
27.24399 25.000
27.34329 19.000
27.44259 12.000
27.54190 22.000
27.64120 22.000
27.74050 19.000
27.83981 23.000
27.93911 27.000
28.03842 16.000
28.13772 23.000
28.23702 20.000
28.33633 24.000
28.43563 32.000
28.53493 23.000
28.63424 20.000
28.73354 20.000
28.83284 23.000
28.93215 20.000
29.03145 21.000
29.13075 23.000
29.23006 26.000
29.32936 19.000
29.42866 20.000
29.52797 18.000
29.62727 25.000
29.72657 17.000
29.82588 17.000
29.92518 22.000
30.02449 25.000
30.12379 23.000
30.22309 22.000
30.32240 24.000
30.42170 17.000
30.52100 26.000
30.62031 18.000
30.71961 20.000
30.81891 15.000
30.91822 18.000
31.01752 20.000
31.11682 21.000
31.21613 21.000
31.31543 23.000
31.41473 26.000
31.51404 23.000
31.61334 31.000
31.71265 15.000
31.81195 21.000
31.91125 25.000
32.01056 19.000
32.10986 22.000
32.20916 27.000
32.30847 30.000
32.40777 26.000
32.50707 31.000
32.60638 28.000
32.70568 40.000
32.80498 59.000
32.90429 141.000
33.00359 254.000
33.10289 258.000
33.20220 127.000
33.30150 63.000
33.40080 38.000
33.50011 37.000
33.59941 35.000
33.69872 31.000
33.79802 30.000
33.89732 29.000
33.99663 14.000
34.09593 24.000
34.19523 28.000
34.29454 26.000
34.39384 22.000
34.49314 26.000
34.59245 19.000
34.69175 18.000
34.79105 26.000
34.89036 17.000
34.98966 27.000
35.08896 40.000
35.18827 33.000
35.28757 45.000
35.38688 120.000
35.48618 229.000
35.58548 206.000
35.68479 95.000
35.78409 56.000
35.88339 49.000
35.98270 33.000
36.08200 23.000
36.18130 27.000
36.28061 22.000
36.37991 26.000
36.47921 20.000
36.57852 21.000
36.67782 19.000
36.77712 21.000
36.87643 22.000
36.97573 24.000
37.07503 15.000
37.17434 21.000
37.27364 25.000
37.37295 24.000
37.47225 28.000
37.57155 26.000
37.67086 11.000
37.77016 19.000
37.86946 23.000
37.96877 24.000
38.06807 21.000
38.16737 23.000
38.26668 19.000
38.36598 23.000
38.46528 23.000
38.56459 26.000
38.66389 25.000
38.76319 22.000
38.86250 24.000
38.96180 28.000
39.06111 23.000
39.16041 34.000
39.25971 33.000
39.35902 28.000
39.45832 23.000
39.55762 21.000
39.65693 23.000
39.75623 26.000
39.85553 31.000
39.95484 27.000
40.05414 24.000
40.15344 24.000
40.25275 30.000
40.35205 27.000
40.45135 29.000
40.55066 39.000
40.64996 74.000
40.74926 100.000
40.84857 73.000
40.94787 49.000
41.04718 30.000
41.14648 33.000
41.24578 15.000
41.34509 24.000
41.44439 24.000
41.54369 19.000
41.64300 13.000
41.74230 31.000
41.84160 37.000
41.94091 24.000
42.04021 25.000
42.13951 28.000
42.23882 34.000
42.33812 34.000
42.43742 20.000
42.53673 24.000
42.63603 21.000
42.73534 31.000
42.83464 15.000
42.93394 34.000
43.03325 25.000
43.13255 24.000
43.23185 38.000
43.33116 29.000
43.43046 35.000
43.52976 34.000
43.62907 23.000
43.72837 21.000
43.82767 33.000
43.92698 21.000
44.02628 33.000
44.12558 19.000
44.22489 24.000
44.32419 29.000
44.42349 22.000
44.52280 24.000
44.62210 29.000
44.72141 26.000
44.82071 28.000
44.92001 30.000
45.01932 34.000
45.11862 32.000
45.21792 25.000
45.31723 29.000
45.41653 30.000
45.51583 19.000
45.61514 25.000
45.71444 25.000
45.81374 20.000
45.91305 30.000
46.01235 24.000
46.11165 33.000
46.21096 24.000
46.31026 17.000
46.40957 34.000
46.50887 26.000
46.60817 25.000
46.70748 20.000
46.80678 27.000
46.90608 37.000
47.00539 28.000
47.10469 25.000
47.20399 35.000
47.30330 31.000
47.40260 21.000
47.50190 28.000
47.60121 22.000
47.70051 25.000
47.79981 23.000
47.89912 35.000
47.99842 36.000
48.09772 25.000
48.19703 34.000
48.29633 26.000
48.39564 33.000
48.49494 26.000
48.59424 35.000
48.69355 32.000
48.79285 38.000
48.89215 38.000
48.99146 38.000
49.09076 53.000
49.19006 98.000
49.28937 184.000
49.38867 185.000
49.48797 112.000
49.58728 74.000
49.68658 43.000
49.78588 38.000
49.88519 37.000
49.98449 38.000
50.08380 35.000
50.18310 28.000
50.28240 32.000
50.38171 35.000
50.48101 36.000
50.58031 33.000
50.67962 35.000
50.77892 28.000
50.87822 31.000
50.97753 29.000
51.07683 36.000
51.17613 36.000
51.27544 35.000
51.37474 40.000
51.47404 31.000
51.57335 44.000
51.67265 25.000
51.77195 34.000
51.87126 40.000
51.97056 29.000
52.06987 31.000
52.16917 28.000
52.26847 31.000
52.36778 31.000
52.46708 44.000
52.56638 38.000
52.66569 44.000
52.76499 33.000
52.86429 36.000
52.96360 43.000
53.06290 30.000
53.16220 42.000
53.26151 41.000
53.36081 38.000
53.46011 47.000
53.55942 48.000
53.65872 66.000
53.75803 100.000
53.85733 187.000
53.95663 243.000
54.05594 190.000
54.15524 124.000
54.25454 53.000
54.35385 58.000
54.45315 44.000
54.55245 35.000
54.65176 34.000
54.75106 37.000
54.85036 45.000
54.94967 45.000
55.04897 42.000
55.14827 43.000
55.24758 36.000
55.34688 50.000
55.44618 52.000
55.54549 41.000
55.64479 39.000
55.74410 57.000
55.84340 40.000
55.94270 37.000
56.04201 56.000
56.14131 46.000
56.24061 36.000
56.33992 45.000
56.43922 36.000
56.53852 53.000
56.63783 46.000
56.73713 40.000
56.83643 36.000
56.93574 50.000
57.03504 46.000
57.13434 59.000
57.23365 49.000
57.33295 71.000
57.43226 105.000
57.53156 69.000
57.63086 71.000
57.73017 65.000
57.82947 59.000
57.92877 52.000
58.02808 46.000
58.12738 46.000
58.22668 52.000
58.32599 42.000
58.42529 47.000
58.52459 35.000
58.62390 46.000
58.72320 44.000
58.82250 43.000
58.92181 40.000
59.02111 40.000
59.12041 43.000
59.21972 45.000
59.31902 43.000
59.41833 52.000
59.51763 41.000
59.61693 42.000
59.71624 42.000
59.81554 50.000
59.91484 56.000
60.01415 53.000
60.11345 45.000
60.21275 50.000
60.31206 50.000
60.41136 42.000
60.51066 58.000
60.60997 36.000
60.70927 40.000
60.80857 41.000
60.90788 56.000
61.00718 47.000
61.10649 48.000
61.20579 50.000
61.30509 50.000
61.40440 42.000
61.50370 47.000
61.60300 56.000
61.70231 47.000
61.80161 59.000
61.90091 47.000
62.00022 69.000
62.09952 89.000
62.19882 145.000
62.29813 208.000
62.39743 190.000
62.49673 137.000
62.59604 97.000
62.69534 54.000
62.79465 52.000
62.89395 50.000
62.99325 54.000
63.09256 54.000
63.19186 46.000
63.29116 55.000
63.39047 53.000
63.48977 54.000
63.58907 69.000
63.68838 100.000
63.78768 154.000
63.88698 211.000
63.98629 182.000
64.08559 123.000
64.18489 91.000
64.28420 56.000
64.38350 49.000
64.48280 49.000
64.58211 46.000
64.68141 55.000
64.78072 59.000
64.88002 51.000
64.97932 50.000
65.07863 40.000
65.17793 52.000
65.27723 36.000
65.37654 38.000
65.47584 51.000
65.57514 40.000
65.67445 31.000
65.77375 46.000
65.87305 49.000
65.97236 57.000
66.07166 41.000
66.17096 59.000
66.27027 38.000
66.36957 54.000
66.46888 51.000
66.56818 38.000
66.66748 44.000
66.76679 34.000
66.86609 31.000
66.96539 48.000
67.06470 40.000
67.16400 39.000
67.26330 46.000
67.36261 33.000
67.46191 31.000
67.56121 52.000
67.66052 47.000
67.75982 38.000
67.85912 52.000
67.95843 39.000
68.05773 32.000
68.15703 44.000
68.25634 49.000
68.35564 49.000
68.45495 24.000
68.55425 48.000
68.65355 37.000
68.75286 37.000
68.85216 45.000
68.95146 38.000
69.05077 36.000
69.15007 39.000
69.24937 57.000
69.34868 44.000
69.44798 57.000
69.54728 55.000
69.64659 57.000
69.74589 47.000
69.84519 59.000
69.94450 35.000
70.04380 40.000
70.14311 41.000
70.24241 39.000
70.34171 39.000
70.44102 54.000
70.54032 51.000
70.63962 27.000
70.73893 34.000
70.83823 34.000
70.93753 38.000
71.03684 36.000
71.13614 51.000
71.23544 52.000
71.33475 36.000
71.43405 44.000
71.53335 64.000
71.63266 63.000
71.73196 79.000
71.83126 89.000
71.93057 84.000
72.02987 84.000
72.12918 75.000
72.22848 54.000
72.32778 52.000
72.42709 46.000
72.52639 45.000
72.62569 42.000
72.72500 40.000
72.82430 45.000
72.92360 36.000
73.02291 48.000
73.12221 39.000
73.22151 41.000
73.32082 36.000
73.42012 32.000
73.51942 48.000
73.61873 44.000
73.71803 33.000
73.81734 41.000
73.91664 36.000
74.01594 36.000
74.11525 55.000
74.21455 52.000
74.31385 41.000
74.41316 42.000
74.51246 35.000
74.61176 29.000
74.71107 27.000
74.81037 38.000
74.90967 36.000
75.00898 44.000
75.10828 49.000
75.20758 59.000
75.30689 67.000
75.40619 71.000
75.50549 65.000
75.60480 51.000
75.70410 47.000
75.80341 46.000
75.90271 54.000
76.00201 40.000
76.10132 25.000
76.20062 54.000
76.29992 31.000
76.39923 34.000
76.49853 33.000
76.59783 38.000
76.69714 43.000
76.79644 33.000
76.89574 21.000
76.99505 35.000
77.09435 38.000
77.19365 34.000
77.29296 40.000
77.39226 42.000
77.49157 46.000
77.59087 37.000
77.69017 55.000
77.78948 55.000
77.88878 35.000
77.98808 40.000
78.08739 46.000
78.18669 60.000
78.28599 31.000
78.38530 36.000
78.48460 49.000
78.58390 41.000
78.68321 42.000
78.78251 36.000
78.88181 44.000
78.98112 37.000
79.08042 36.000
79.17972 42.000
79.27903 27.000
79.37833 34.000
79.47764 30.000
79.57694 30.000
79.67624 40.000
79.77555 35.000
79.87485 27.000
79.97415 30.000
80.02380 38.000