File: exp_pxrd_data/crystalyze/Rh3Bi/Rh_Bi_postheat_minigrid_12_017_Rh_3.7513_MgO_4.0840.xy
1.04218  29.2198
1.08248  28.9908
1.12279  30.1818
1.1631  34.5356
1.2034  40.2875
1.24371  54.3004
1.28402  210.009
1.32432  620.559
1.36463  1080.31
1.40494  1421.48
1.44525  1544.39
1.48555  1620.88
1.52586  1677.17
1.56617  1719.09
1.60647  1757.45
1.64678  1782.77
1.68709  1804.5
1.7274  1824.57
1.7677  1828.87
1.80801  1847.52
1.84832  1885.09
1.88862  1925.8
1.92893  1970.15
1.96924  1992.75
2.00954  2011.39
2.04985  2021.21
2.09016  2037.01
2.13047  2051.76
2.17077  2070.03
2.21108  2084.59
2.25139  2098.3
2.29169  2113.3
2.332  2121.68
2.37231  2124.79
2.41262  2143.93
2.45292  2160.86
2.49323  2163.12
2.53354  2170.37
2.57384  2179.14
2.61415  2187.09
2.65446  2197.43
2.69476  2198.45
2.73507  2206.25
2.77538  2204.34
2.81569  2208.81
2.85599  2209.25
2.8963  2216.09
2.93661  2219.32
2.97691  2218.98
3.01722  2216.64
3.05753  2224.1
3.09784  2232.59
3.13814  2235.63
3.17845  2231.65
3.21876  2233.31
3.25906  2229.25
3.29937  2230.62
3.33968  2239.01
3.37998  2230.06
3.42029  2230.36
3.4606  2227.03
3.50091  2227.92
3.54121  2228.52
3.58152  2231.85
3.62183  2238.91
3.66213  2237.96
3.70244  2235.39
3.74275  2233.26
3.78305  2232.29
3.82336  2233.1
3.86367  2230.47
3.90398  2223.69
3.94428  2224.93
3.98459  2229.48
4.0249  2229.88
4.0652  2229.84
4.10551  2230.44
4.14582  2229.16
4.18613  2232.39
4.22643  2229.85
4.26674  2227.44
4.30705  2228.5
4.34735  2228.44
4.38766  2232.73
4.42797  2245.82
4.46827  2242.83
4.50858  2238.05
4.54889  2234.81
4.5892  2231.34
4.6295  2229.24
4.66981  2228.97
4.71012  2229.3
4.75042  2231.85
4.79073  2230.93
4.83104  2229.59
4.87135  2226.86
4.91165  2228.5
4.95196  2225.3
4.99227  2227.97
5.03257  2239.79
5.07288  2249.07
5.11319  2237.77
5.15349  2236.18
5.1938  2235.13
5.23411  2236.14
5.27442  2236.54
5.31472  2261.21
5.35503  2260.39
5.39534  2257.75
5.43564  2256.08
5.47595  2262.84
5.51626  2268.3
5.55657  2260.45
5.59687  2254.82
5.63718  2252.66
5.67749  2249.95
5.71779  2252.25
5.7581  2252.4
5.79841  2254.37
5.83871  2264.56
5.87902  2324.74
5.91933  2596.6
5.95964  2574.75
5.99994  2391.5
6.04025  2294.79
6.08056  2284.28
6.12086  2285.28
6.16117  2281.99
6.20148  2276.57
6.24179  2275.6
6.28209  2278.22
6.3224  2277.82
6.36271  2275.48
6.40301  2277.78
6.44332  2282.55
6.48363  2286.04
6.52393  2285.86
6.56424  2284.09
6.60455  2284
6.64486  2285.99
6.68516  2286.97
6.72547  2290.04
6.76578  2296.08
6.80608  2295.43
6.84639  2295.56
6.8867  2296.65
6.92701  2298.69
6.96731  2301.13
7.00762  2305.45
7.04793  2308.12
7.08823  2307.56
7.12854  2309.74
7.16885  2310.72
7.20915  2313.07
7.24946  2315.78
7.28977  2317.8
7.33008  2318.12
7.37038  2323.56
7.41069  2327.47
7.451  2327.98
7.4913  2327.99
7.53161  2331.64
7.57192  2334.57
7.61223  2338.02
7.65253  2344.67
7.69284  2345.52
7.73315  2345.68
7.77345  2344.92
7.81376  2349.1
7.85407  2350.21
7.89437  2349.28
7.93468  2358.04
7.97499  2360.52
8.0153  2361.64
8.0556  2365.18
8.09591  2372.48
8.13622  2371.74
8.17652  2375.65
8.21683  2378.07
8.25714  2382.59
8.29744  2390.38
8.33775  2439.63
8.37806  2640.23
8.41837  2728.2
8.45867  2510.55
8.49898  2410.43
8.53929  2402.95
8.57959  2403.18
8.6199  2408.91
8.66021  2411.59
8.70052  2415.04
8.74082  2418.95
8.78113  2421.64
8.82144  2428.51
8.86174  2441.12
8.90205  2467.12
8.94236  2566.48
8.98266  3114.57
9.02297  4171.02
9.06328  3986.24
9.10359  2934.62
9.14389  2547.17
9.1842  2483.97
9.22451  2467.34
9.26481  2463.27
9.30512  2464.11
9.34543  2462.34
9.38574  2468.1
9.42604  2469.57
9.46635  2474.22
9.50666  2475.76
9.54696  2474.8
9.58727  2474.93
9.62758  2480.2
9.66788  2482.7
9.70819  2482.89
9.7485  2484.21
9.78881  2493.93
9.82911  2500.05
9.86942  2508.35
9.90973  2532.26
9.95003  2544.2
9.99034  2538.78
10.0306  2535.02
10.071  2544.13
10.1113  2565.91
10.1516  2609.76
10.1919  2729.89
10.2322  3413.55
10.2725  5584.97
10.3128  6522.36
10.3531  4254.55
10.3934  3024.77
10.4337  2778.91
10.474  2712.64
10.5143  2692.71
10.5546  2685.38
10.5949  2713.6
10.6353  2826.93
10.6756  3060.81
10.7159  3357.38
10.7562  4079.51
10.7965  6351.13
10.8368  7176.67
10.8771  4547.98
10.9174  2926.83
10.9577  2655.14
10.998  2629.02
11.0383  2620.31
11.0786  2613.58
11.1189  2610.29
11.1592  2614.17
11.1996  2621.02
11.2399  2633.28
11.2802  2645.24
11.3205  2678.11
11.3608  2759.47
11.4011  3157.95
11.4414  4793.53
11.4817  6980.48
11.522  5282.81
11.5623  3291.83
11.6026  2805.05
11.6429  2721.18
11.6832  2701.77
11.7235  2713.16
11.7639  2756.04
11.8042  2903.06
11.8445  3382.94
11.8848  4019.04
11.9251  4010.71
11.9654  3202.23
12.0057  2852.45
12.046  2750.26
12.0863  2717.96
12.1266  2701.36
12.1669  2701.09
12.2072  2706.5
12.2475  2720.97
12.2878  2756.52
12.3282  2813.83
12.3685  2960.92
12.4088  3342.98
12.4491  4626.68
12.4894  6245.5
12.5297  5261.02
12.57  3435.8
12.6103  2832.16
12.6506  2751.14
12.6909  2742.86
12.7312  2772.66
12.7715  2821.31
12.8118  2830.49
12.8521  2783.68
12.8924  2741.16
12.9328  2726.94
12.9731  2722.96
13.0134  2723.67
13.0537  2720.37
13.094  2720.43
13.1343  2721.31
13.1746  2724.62
13.2149  2743.14
13.2552  2812.61
13.2955  2922.94
13.3358  2906.05
13.3761  2788.66
13.4164  2744.64
13.4567  2734.26
13.4971  2735.66
13.5374  2737.78
13.5777  2738.01
13.618  2739.32
13.6583  2742.8
13.6986  2744.45
13.7389  2745.19
13.7792  2746.17
13.8195  2749.11
13.8598  2750.8
13.9001  2750.21
13.9404  2755.28
13.9807  2758.07
14.021  2759.28
14.0614  2761.49
14.1017  2759.54
14.142  2763.1
14.1823  2769.09
14.2226  2775.12
14.2629  2786.11
14.3032  2797.39
14.3435  2800.16
14.3838  2795.92
14.4241  2792.39
14.4644  2805.22
14.5047  2840.53
14.545  2914.26
14.5853  2972.44
14.6257  2911.85
14.666  2839.83
14.7063  2816.75
14.7466  2815.39
14.7869  2816.76
14.8272  2818.98
14.8675  2820.34
14.9078  2821.51
14.9481  2824.95
14.9884  2826.26
15.0287  2842.05
15.069  2847.84
15.1093  2849.97
15.1496  2848.25
15.19  2844.68
15.2303  2846.63
15.2706  2846.96
15.3109  2862.95
15.3512  2873.25
15.3915  2873.29
15.4318  2877.22
15.4721  2877.64
15.5124  2882.57
15.5527  2903.16
15.593  2961.65
15.6333  3109.53
15.6736  3287.36
15.7139  3248.79
15.7542  3061.13
15.7946  2955.81
15.8349  2934.82
15.8752  2933.05
15.9155  2917.98
15.9558  2913.76
15.9961  2913.88
16.0364  2918.55
16.0767  2924.94
16.117  2946.71
16.1573  3010.15
16.1976  3234.63
16.2379  3692.26
16.2782  3847.73
16.3185  3462.05
16.3589  3104.43
16.3992  2981.18
16.4395  2951.62
16.4798  2941.76
16.5201  2938.03
16.5604  2942.34
16.6007  2945.27
16.641  2952.79
16.6813  2972.97
16.7216  3008.89
16.7619  3146.24
16.8022  3600.78
16.8425  4327.09
16.8828  4080.1
16.9232  3437.56
16.9635  3099.36
17.0038  3011.39
17.0441  2981.72
17.0844  2976.26
17.1247  2969.45
17.165  2967.23
17.2053  2966.12
17.2456  2966.87
17.2859  2970.86
17.3262  2972.98
17.3665  2977.05
17.4068  2986.55
17.4471  3005.69
17.4875  3029.53
17.5278  3064.02
17.5681  3111.01
17.6084  3187.75
17.6487  3395.3
17.689  3786.81
17.7293  3942.01
17.7696  3520.34
17.8099  3160.34
17.8502  3098.1
17.8905  3106.14
17.9308  3071.57
17.9711  3033.93
18.0114  3026.71
18.0518  3047.87
18.0921  3113.44
18.1324  3170
18.1727  3122.97
18.213  3062.4
18.2533  3040.32
18.2936  3030.38
18.3339  3031.16
18.3742  3032.44
18.4145  3034.4
18.4548  3032.24
18.4951  3032.93
18.5354  3032.04
18.5757  3032.56
18.6161  3039.59
18.6564  3043.34
18.6967  3048.62
18.737  3060.43
18.7773  3099.15
18.8176  3140.82
18.8579  3144.21
18.8982  3111.62
18.9385  3082.04
18.9788  3073.51
19.0191  3092.72
19.0594  3147.07
19.0997  3182.83
19.14  3144.3
19.1803  3091.13
19.2207  3068.49
19.261  3061.49
19.3013  3059.2
19.3416  3056.76
19.3819  3061.5
19.4222  3067.9
19.4625  3070.86
19.5028  3077.52
19.5431  3088.3
19.5834  3102.77
19.6237  3133.32
19.664  3208.61
19.7043  3427.91
19.7446  3873.73
19.785  4348.05
19.8253  4233.37
19.8656  3683.5
19.9059  3363.98
19.9462  3264.51
19.9865  3205.06
20.0268  3154.77
20.0671  3126.79
20.1074  3120.83
20.1477  3128.06
20.188  3149.42
20.2283  3194.78
20.2686  3230.51
20.3089  3221.29
20.3493  3183.43
20.3896  3152.56
20.4299  3143.19
20.4702  3148.03
20.5105  3170.06
20.5508  3209.45
20.5911  3299.31
20.6314  3489.84
20.6717  3710.78
20.712  3882.91
20.7523  4371.77
20.7926  5098.77
20.8329  4945.16
20.8732  4009.95
20.9136  3377.7
20.9539  3191.47
20.9942  3153.52
21.0345  3143.3
21.0748  3139.38
21.1151  3140.42
21.1554  3139.87
21.1957  3145.73
21.236  3146.22
21.2763  3151.25
21.3166  3157.75
21.3569  3167.18
21.3972  3178.48
21.4375  3199.27
21.4779  3238.6
21.5182  3379.8
21.5585  3569.45
21.5988  3687.87
21.6391  3870.87
21.6794  4052.24
21.7197  4352.97
21.76  4708.76
21.8003  4503.12
21.8406  4067.32
21.8809  3843.64
21.9212  3692.36
21.9615  3691.41
22.0018  3540.03
22.0422  3338.82
22.0825  3233.23
22.1228  3216.47
22.1631  3208.2
22.2034  3212.01
22.2437  3231.31
22.284  3237.45
22.3243  3241.77
22.3646  3239.95
22.4049  3215.05
22.4452  3184.11
22.4855  3170.86
22.5258  3162.89
22.5661  3163.36
22.6064  3164.33
22.6468  3177.34
22.6871  3188.22
22.7274  3179.31
22.7677  3173.31
22.808  3168.79
22.8483  3166.52
22.8886  3169.61
22.9289  3172.05
22.9692  3175.75
23.0095  3189.99
23.0498  3210.54
23.0901  3223.46
23.1304  3201.09
23.1707  3177.03
23.2111  3164.25
23.2514  3159.02
23.2917  3157.98
23.332  3160.79
23.3723  3160.52
23.4126  3160.53
23.4529  3162.56
23.4932  3162.56
23.5335  3163.05
23.5738  3165.19
23.6141  3164.03
23.6544  3167.48
23.6947  3172.04
23.735  3179.91
23.7754  3202.67
23.8157  3216.63
23.856  3246.1
23.8963  3289.39
23.9366  3316.04
23.9769  3325.95
24.0172  3363.73
24.0575  3400.17
24.0978  3356.95
24.1381  3288.48
24.1784  3243.21
24.2187  3217.23
24.259  3205.34
24.2993  3203.58
24.3397  3206.7
24.38  3204.9
24.4203  3204.42
24.4606  3202.53
24.5009  3203.51
24.5412  3209.71
24.5815  3221.68
24.6218  3240.52
24.6621  3257.78
24.7024  3256.38
24.7427  3243.67
24.783  3231.4
24.8233  3228.95
24.8636  3232.02
24.904  3232.49
24.9443  3240.49
24.9846  3245.29
25.0249  3255.27
25.0652  3281.19
25.1055  3329.84
25.1458  3385.68
25.1861  3401.97
25.2264  3367.18
25.2667  3302.36
25.307  3264.77
25.3473  3262.82
25.3876  3266.4
25.4279  3268.41
25.4682  3259.57
25.5086  3251.15
25.5489  3246.22
25.5892  3248.85
25.6295  3254.28
25.6698  3256.99
25.7101  3268.8
25.7504  3299.57
25.7907  3354.79
25.831  3415.98
25.8713  3433.35
25.9116  3392.47
25.9519  3352.65
25.9922  3376.8
26.0325  3495.54
26.0729  3680.64
26.1132  3766.45
26.1535  3639.57
26.1938  3464.49
26.2341  3359.34
26.2744  3313.85
26.3147  3300.23
26.355  3286.43
26.3953  3275.15
26.4356  3271.79
26.4759  3270.33
26.5162  3273.69
26.5565  3282.78
26.5968  3291.95
26.6372  3313.59
26.6775  3367.22
26.7178  3463.74
26.7581  3593.89
26.7984  3659.56
26.8387  3581.59
26.879  3460.1
26.9193  3374.66
26.9596  3332.33
26.9999  3320.62
27.0402  3314.25
27.0805  3317.01
27.1208  3316.85
27.1611  3320.42
27.2015  3330.62
27.2418  3349.59
27.2821  3373.92
27.3224  3423.31
27.3627  3513.1
27.403  3749.23
27.4433  4154.53
27.4836  4316.72
27.5239  3914.64
27.5642  3501.94
27.6045  3366.92
27.6448  3331.51
27.6851  3321.6
27.7254  3321.16
27.7658  3323.97
27.8061  3331.5
27.8464  3338.35
27.8867  3349.63
27.927  3368.12
27.9673  3387.47
28.0076  3410.87
28.0479  3439.48
28.0882  3508.23
28.1285  3648.66
28.1688  3778.63
28.2091  3772.29
28.2494  3613
28.2897  3487.69
28.3301  3465.4
28.3704  3489.69
28.4107  3471.02
28.451  3410.11
28.4913  3369.74
28.5316  3359.09
28.5719  3353.57
28.6122  3347.84
28.6525  3352.99
28.6928  3353.09
28.7331  3362.65
28.7734  3377.03
28.8137  3397.94
28.854  3403.48
28.8943  3398.55
28.9347  3388.78
28.975  3382.95
29.0153  3375.56
29.0556  3374.21
29.0959  3375.67
29.1362  3388.87
29.1765  3398.87
29.2168  3409.46
29.2571  3420.04
29.2974  3461.1
29.3377  3536.58
29.378  3628.81
29.4183  3672.6
29.4586  3608.24
29.499  3518.24
29.5393  3460.8
29.5796  3433.78
29.6199  3427.69
29.6602  3418.21
29.7005  3419.01
29.7408  3418.2
29.7811  3410.45
29.8214  3412.41
29.8617  3413.21
29.902  3416.78
29.9423  3422.33
29.9826  3437.17
30.0229  3445.22
30.0633  3448.25
30.1036  3448.48
30.1439  3451.66
30.1842  3455.53
30.2245  3467.88
30.2648  3488.6
30.3051  3485.68
30.3454  3470.93
30.3857  3467.33
30.426  3464.53
30.4663  3478.97
30.5066  3483.11
30.5469  3509.65
30.5872  3536.47
30.6276  3570.68
30.6679  3565.31
30.7082  3565.17
30.7485  3594.19
30.7888  3652.05
30.8291  3745.31
30.8694  3953.55
30.9097  4325.31
30.95  4514.19
30.9903  4298.8
31.0306  3936.89
31.0709  3761.44
31.1112  3735.72
31.1515  3821.47
31.1919  3959.75
31.2322  4121.4
31.2725  4282.53
31.3128  4263.62
31.3531  4165.39
31.3934  4191.72
31.4337  4293.62
31.474  3889.75