File: exp_pxrd_data/decifer/CeO2/boroglass_0p8_empty_VCT_72h.xy
2.99452 4.42735 0.0156129
3.08152 4.44527 0.0156445
3.16852 4.49917 0.015739
3.25552 4.58494 0.0158883
3.34252 4.74742 0.0161674
3.42952 4.90468 0.016433
3.51652 5.07382 0.016714
3.60352 5.20167 0.0169232
3.69052 5.42047 0.0172755
3.77752 5.64398 0.0176281
3.86452 5.81401 0.0178916
3.95152 6.05109 0.0182528
4.03852 6.23821 0.0185328
4.12552 6.43712 0.018826
4.21252 6.62233 0.0190949
4.29952 6.74597 0.0192723
4.38652 6.83162 0.0193943
4.47352 6.91031 0.0195056
4.56052 6.9439 0.019553
4.64752 7.03059 0.0196747
4.73452 7.08435 0.0197498
4.82152 7.18529 0.01989
4.90852 7.22777 0.0199487
4.99552 7.26558 0.0200008
5.08252 7.33812 0.0201004
5.16952 7.45859 0.0202647
5.25652 7.5513 0.0203903
5.34352 7.68086 0.0205644
5.43052 7.81764 0.0207467
5.51752 7.91688 0.020878
5.60452 8.06568 0.0210733
5.69152 8.21133 0.0212627
5.77852 8.3504 0.021442
5.86552 8.53261 0.0216747
5.95252 8.71641 0.0219069
6.03952 8.87912 0.0221104
6.12652 9.11667 0.0224042
6.21352 9.35047 0.0226897
6.30052 9.5633 0.0229465
6.38752 9.79646 0.0232245
6.47452 10.068 0.0235442
6.56152 10.3465 0.0238676
6.64852 10.6035 0.0241622
6.73552 10.8825 0.0244781
6.82252 11.138 0.0247637
6.90952 11.37 0.0250202
6.99652 11.6347 0.0253098
7.08352 11.8501 0.025543
7.17052 12.1542 0.0258687
7.25752 12.3214 0.0260461
7.34452 12.4504 0.0261821
7.43152 12.6216 0.0263615
7.51852 12.7307 0.0264751
7.60552 12.7801 0.0265265
7.69252 12.8224 0.0265703
7.77952 12.8523 0.0266013
7.86652 12.7443 0.0264893
7.95352 12.6839 0.0264264
8.04052 12.578 0.0263158
8.12752 12.4264 0.0261568
8.21452 12.2418 0.0259618
8.30152 12.0294 0.0257356
8.38852 11.7879 0.025476
8.47552 11.5742 0.025244
8.56252 11.3208 0.0249661
8.64952 11.0943 0.0247151
8.73652 10.8026 0.024388
8.82352 10.5606 0.0241133
8.91052 10.3112 0.0238268
8.99752 10.0702 0.0235467
9.08452 9.79743 0.0232256
9.17152 9.61951 0.0230138
9.25852 9.38774 0.0227349
9.34552 9.13954 0.0224323
9.43252 8.9613 0.0222125
9.51952 8.73721 0.021933
9.60652 8.5108 0.021647
9.69352 8.31163 0.0213922
9.78052 8.12783 0.0211543
9.86752 7.97504 0.0209545
9.95452 7.77393 0.0206886
10.0415 7.65181 0.0205255
10.1285 7.4515 0.0202551
10.2155 7.26305 0.0199973
10.3025 7.10204 0.0197744
10.3895 6.96262 0.0195793
10.4765 6.78601 0.0193294
10.5635 6.67103 0.019165
10.6505 6.4998 0.0189174
10.7375 6.35945 0.0187121
10.8245 6.22066 0.0185067
10.9115 6.08254 0.0183001
10.9985 5.98832 0.0181578
11.0855 5.85939 0.0179613
11.1725 5.73108 0.0177636
11.2595 5.62171 0.0175932
11.3465 5.55529 0.017489
11.4335 5.41792 0.0172714
11.5205 5.32096 0.0171162
11.6075 5.25007 0.0170018
11.6945 5.17805 0.0168848
11.7815 5.10961 0.0167728
11.8685 4.99405 0.0165821
11.9555 4.95305 0.0165138
12.0425 4.85184 0.0163442
12.1295 4.7977 0.0162528
12.2165 4.69053 0.0160703
12.3035 4.60837 0.0159289
12.3905 4.60679 0.0159261
12.4775 4.51018 0.0157583
12.5645 4.46169 0.0156733
12.6515 4.38944 0.0155459
12.7385 4.34613 0.015469
12.8255 4.28017 0.0153512
12.9125 4.22244 0.0152473
12.9995 4.17428 0.0151601
13.0865 4.12129 0.0150636
13.1735 4.01729 0.0148723
13.2605 3.99896 0.0148383
13.3475 3.93838 0.0147255
13.4345 3.87987 0.0146157
13.5215 3.84022 0.0145409
13.6085 3.78661 0.014439
13.6955 3.75479 0.0143782
13.7825 3.73142 0.0143334
13.8695 3.69226 0.014258
13.9565 3.64813 0.0141725
14.0435 3.62084 0.0141194
14.1305 3.64954 0.0141752
14.2175 3.63243 0.014142
14.3045 3.59567 0.0140702
14.3915 3.60486 0.0140882
14.4785 3.59781 0.0140744
14.5655 3.60497 0.0140884
14.6525 3.64243 0.0141614
14.7395 3.64501 0.0141665
14.8265 3.61827 0.0141144
14.9135 3.62922 0.0141357
15.0005 3.65866 0.0141929
15.0875 3.65808 0.0141918
15.1745 3.65314 0.0141822
15.2615 3.66496 0.0142052
15.3485 3.65329 0.0141825
15.4355 3.64083 0.0141583
15.5225 3.65767 0.014191
15.6095 3.64549 0.0141674
15.6965 3.63875 0.0141543
15.7835 3.64698 0.0141703
15.8705 3.63023 0.0141377
15.9575 3.60759 0.0140935
16.0445 3.58458 0.0140485
16.1315 3.57347 0.0140267
16.2185 3.56195 0.0140041
16.3055 3.55428 0.013989
16.3925 3.54556 0.0139718
16.4795 3.51172 0.013905
16.5665 3.50772 0.0138971
16.6535 3.46985 0.0138219
16.7405 3.43435 0.013751
16.8275 3.41932 0.0137209
16.9145 3.39564 0.0136733
17.0015 3.34106 0.0135629
17.0885 3.3035 0.0134865
17.1755 3.28329 0.0134452
17.2625 3.27575 0.0134297
17.3495 3.25249 0.013382
17.4365 3.20788 0.0132899
17.5235 3.19928 0.0132721
17.6105 3.17628 0.0132243
17.6975 3.15767 0.0131855
17.7845 3.13601 0.0131402
17.8715 3.10485 0.0130747
17.9585 3.11415 0.0130943
18.0455 3.0706 0.0130024
18.1325 3.05405 0.0129673
18.2195 3.04688 0.0129521
18.3065 3.02307 0.0129014
18.3935 3.0116 0.0128769
18.4805 3.00941 0.0128722
18.5675 2.98108 0.0128115
18.6545 2.97351 0.0127952
18.7415 2.97222 0.0127924
18.8285 2.97068 0.0127891
18.9155 2.9514 0.0127475
19.0025 2.93615 0.0127146
19.0895 2.94123 0.0127255
19.1765 2.91965 0.0126788
19.2635 2.94314 0.0127297
19.3505 2.9208 0.0126813
19.4375 2.93333 0.0127084
19.5245 2.93489 0.0127118
19.6115 2.91526 0.0126692
19.6985 2.91866 0.0126766
19.7855 2.92123 0.0126822
19.8725 2.91893 0.0126772
19.9595 2.93325 0.0127083
20.0465 2.9246 0.0126895
20.1335 2.91623 0.0126713
20.2205 2.92051 0.0126806
20.3075 2.91889 0.0126771
20.3945 2.92073 0.0126811
20.4815 2.92866 0.0126983
20.5685 2.93528 0.0127127
20.6555 2.95051 0.0127456
20.7425 2.9435 0.0127305
20.8295 2.95755 0.0127608
20.9165 2.96893 0.0127853
21.0035 2.96013 0.0127664
21.0905 2.96452 0.0127758
21.1775 2.97911 0.0128072
21.2645 2.99528 0.0128419
21.3515 2.98262 0.0128148
21.4385 2.9668 0.0127807
21.5255 2.98339 0.0128164
21.6125 3.00409 0.0128608
21.6995 3.01028 0.012874
21.7865 3.00836 0.0128699
21.8735 3.00852 0.0128703
21.9605 3.02797 0.0129118
22.0475 3.02003 0.0128949
22.1345 2.99961 0.0128512
22.2215 3.02825 0.0129124
22.3085 3.0201 0.012895
22.3955 3.02869 0.0129133
22.4825 3.03181 0.01292
22.5695 3.02417 0.0129037
22.6565 3.02485 0.0129052
22.7435 3.01127 0.0128762
22.8305 3.01533 0.0128848
22.9175 3.00991 0.0128733
23.0045 3.0085 0.0128703
23.0915 2.97496 0.0127983
23.1785 2.98404 0.0128178
23.2655 2.99267 0.0128363
23.3525 2.97557 0.0127996
23.4395 2.97795 0.0128047
23.5265 2.98102 0.0128113
23.6135 2.9396 0.012722
23.7005 2.96229 0.012771
23.7875 2.95396 0.012753
23.8745 2.93391 0.0127097
23.9615 2.90547 0.0126479
24.0485 2.90725 0.0126518
24.1355 2.91346 0.0126653
24.2225 2.9124 0.012663
24.3095 2.89967 0.0126353
24.3965 2.88388 0.0126009
24.4835 2.87596 0.0125835
24.5705 2.87729 0.0125865
24.6575 2.87992 0.0125922
24.7445 2.86104 0.0125509
24.8315 2.84745 0.012521
24.9185 2.84376 0.0125129
25.0055 2.84772 0.0125216
25.0925 2.82889 0.0124801
25.1795 2.84662 0.0125192
25.2665 2.83819 0.0125006
25.3535 2.82197 0.0124649
25.4405 2.81197 0.0124428
25.5275 2.81359 0.0124463
25.6145 2.80517 0.0124277
25.7015 2.8006 0.0124176
25.7885 2.79859 0.0124131
25.8755 2.79627 0.012408
25.9625 2.77886 0.0123693
26.0495 2.76532 0.0123391
26.1365 2.77545 0.0123617
26.2235 2.75187 0.0123091
26.3105 2.76403 0.0123362
26.3975 2.73285 0.0122665
26.4845 2.73746 0.0122768
26.5715 2.72326 0.0122449
26.6585 2.70237 0.0121979
26.7455 2.67352 0.0121326
26.8325 2.67226 0.0121297
26.9195 2.64017 0.0120567
27.0065 2.65098 0.0120813
27.0935 2.59762 0.0119591
27.1805 2.59793 0.0119599
27.2675 2.56411 0.0118817
27.3545 2.54269 0.011832
27.4415 2.5062 0.0117468
27.5285 2.50005 0.0117324
27.6155 2.45161 0.0116182
27.7025 2.41445 0.0115298
27.7895 2.40508 0.0115074
27.8765 2.3723 0.0114287
27.9635 2.30717 0.0112707
28.0505 2.30709 0.0112705
28.1375 2.27227 0.0111851
28.2245 2.21759 0.0110497
28.3115 2.19722 0.0109989
28.3985 2.17721 0.0109487
28.4855 2.12845 0.0108254
28.5725 2.11764 0.0107979
28.6595 2.08145 0.0107052
28.7465 2.0414 0.0106017
28.8335 2.01302 0.0105277
28.9205 1.98874 0.0104641
29.0075 1.94768 0.0103555
29.0945 1.93997 0.010335
29.1815 1.90713 0.0102471
29.2685 1.89254 0.0102078
29.3555 1.86254 0.0101266
29.4425 1.83826 0.0100604
29.5295 1.82214 0.0100162
29.6165 1.8044 0.00996731
29.7035 1.78531 0.00991446
29.7905 1.77142 0.0098758
29.8775 1.74822 0.00981092
29.9645 1.73907 0.00978521
30.0515 1.7282 0.00975459
30.1385 1.71657 0.0097217
30.2255 1.70408 0.00968627
30.3125 1.68949 0.00964473
30.3995 1.68971 0.00964535
30.4865 1.67987 0.00961722
30.5735 1.67399 0.00960038
30.6605 1.66297 0.00956872
30.7475 1.65363 0.0095418
30.8345 1.63961 0.00950128
30.9215 1.64547 0.00951824
31.0085 1.61726 0.00943631
31.0955 1.61188 0.00942059
31.1825 1.61861 0.00944025
31.2695 1.60048 0.00938721
31.3565 1.61345 0.00942519
31.4435 1.61133 0.00941897
31.5305 1.6064 0.00940457
31.6175 1.59387 0.0093678
31.7045 1.57613 0.00931552
31.7915 1.57529 0.00931304
31.8785 1.59144 0.00936066
31.9655 1.56824 0.0092922
32.0525 1.55728 0.00925966
32.1395 1.56004 0.00926787
32.2265 1.57255 0.00930496
32.3135 1.55138 0.0092421
32.4005 1.55757 0.00926051
32.4875 1.54673 0.00922823
32.5745 1.53119 0.00918175
32.6615 1.53972 0.00920732
32.7485 1.52892 0.00917497
32.8355 1.5213 0.00915206
32.9225 1.54078 0.00921047
33.0095 1.5127 0.00912615
33.0965 1.50943 0.00911628
33.1835 1.52424 0.0091609
33.2705 1.51023 0.00911871
33.3575 1.50511 0.00910324
33.4445 1.48843 0.00905265
33.5315 1.48256 0.0090348
33.6185 1.48163 0.00903196
33.7055 1.48144 0.00903138
33.7925 1.46034 0.00896681
33.8795 1.47246 0.00900396
33.9665 1.43836 0.00889909
34.0535 1.45133 0.00893911
34.1405 1.46011 0.00896612
34.2275 1.43316 0.00888299
34.3145 1.43223 0.00888009
34.4015 1.42328 0.00885233
34.4885 1.42698 0.0088638
34.5755 1.42375 0.00885376
34.6625 1.40301 0.00878906
34.7495 1.40251 0.00878748
34.8365 1.40067 0.00878171
34.9235 1.40082 0.00878219
35.0105 1.39272 0.00875677
35.0975 1.3709 0.00868789
35.1845 1.36633 0.00867339
35.2715 1.37988 0.00871632
35.3585 1.35462 0.00863616
35.4455 1.3521 0.00862811
35.5325 1.35865 0.008649
35.6195 1.34678 0.00861112
35.7065 1.32966 0.00855621
35.7935 1.3175 0.008517
35.8805 1.31808 0.00851888
35.9675 1.33363 0.008569
36.0545 1.32255 0.0085333
36.1415 1.31158 0.00849784
36.2285 1.29172 0.00843325
36.3155 1.28865 0.00842324
36.4025 1.26875 0.00835794
36.4895 1.27164 0.00836746
36.5765 1.27544 0.00837995
36.6635 1.26491 0.00834529
36.7505 1.26232 0.00833673
36.8375 1.25173 0.0083017
36.9245 1.24249 0.00827102
37.0115 1.24208 0.00826963
37.0985 1.23006 0.00822953
37.1855 1.23535 0.00824721
37.2725 1.22773 0.00822173
37.3595 1.21944 0.00819392
37.4465 1.21535 0.00818018
37.5335 1.21342 0.00817366
37.6205 1.2132 0.00817293
37.7075 1.20455 0.00814375
37.7945 1.20772 0.00815445
37.8815 1.19711 0.00811854
37.9685 1.20179 0.0081344
38.0555 1.19171 0.00810024
38.1425 1.20105 0.00813192
38.2295 1.19217 0.00810179
38.3165 1.183 0.00807056
38.4035 1.1859 0.00808045
38.4905 1.16905 0.00802283
38.5775 1.17231 0.00803402
38.6645 1.17138 0.00803084
38.7515 1.17839 0.00805481
38.8385 1.17731 0.00805113
38.9255 1.16547 0.00801055
39.0125 1.17538 0.00804454
39.0995 1.1658 0.00801168
39.1865 1.17069 0.00802848
39.2735 1.16806 0.00801945
39.3605 1.17743 0.00805154
39.4475 1.17195 0.00803279
39.5345 1.16863 0.00802139
39.6215 1.16948 0.00802432
39.7085 1.18055 0.0080622
39.7955 1.16445 0.00800705
39.8825 1.17271 0.00803538
39.9695 1.18283 0.00807
40.0565 1.17704 0.00805023
40.1435 1.17008 0.00802639
40.2305 1.17026 0.008027
40.3175 1.17471 0.00804225
40.4045 1.17681 0.00804943
40.4915 1.17039 0.00802743
40.5785 1.17406 0.00804
40.6655 1.17473 0.00804232
40.7525 1.176 0.00804666
40.8395 1.17725 0.00805094
40.9265 1.1675 0.00801751
41.0135 1.16324 0.00800289
41.1005 1.17274 0.0080355
41.1875 1.17182 0.00803236
41.2745 1.1807 0.00806274
41.3615 1.18245 0.0080687
41.4485 1.1815 0.00806546
41.5355 1.17098 0.00802945
41.6225 1.18485 0.00807688
41.7095 1.18188 0.00806675
41.7965 1.17608 0.00804693
41.8835 1.17074 0.00802863
41.9705 1.17463 0.00804197
42.0575 1.16772 0.00801828
42.1445 1.17969 0.00805928
42.2315 1.15631 0.007979
42.3185 1.16768 0.00801815
42.4055 1.1609 0.00799484
42.4925 1.15872 0.00798732
42.5795 1.16046 0.0079933
42.6665 1.16944 0.00802418
42.7535 1.15301 0.0079676
42.8405 1.16054 0.00799359
42.9275 1.13789 0.0079152
43.0145 1.13502 0.00790521
43.1015 1.14016 0.00792309
43.1885 1.14969 0.00795612
43.2755 1.14264 0.00793169
43.3625 1.12857 0.0078827
43.4495 1.12991 0.00788741
43.5365 1.1317 0.00789365
43.6235 1.12782 0.00788009
43.7105 1.12441 0.00786819
43.7975 1.1224 0.00786114
43.8845 1.11167 0.00782348
43.9715 1.1186 0.00784782
44.0585 1.11024 0.00781844
44.1455 1.10364 0.00779517
44.2325 1.10002 0.00778237
44.3195 1.11327 0.00782909
44.4065 1.10078 0.00778506
44.4935 1.10307 0.00779317
44.5805 1.09852 0.00777706
44.6675 1.08264 0.00772065
44.7545 1.0802 0.00771193
44.8415 1.0792 0.00770836
44.9285 1.07342 0.00768769
45.0155 1.06058 0.0076416
45.1025 1.06536 0.0076588
45.1895 1.071 0.00767904
45.2765 1.06251 0.00764854
45.3635 1.06269 0.00764917
45.4505 1.05334 0.00761546
45.5375 1.05337 0.00761557
45.6245 1.04842 0.00759766
45.7115 1.04004 0.00756722
45.7985 1.03985 0.00756655
45.8855 1.02339 0.00750642
45.9725 1.02945 0.0075286
46.0595 1.02379 0.00750787
46.1465 1.01917 0.00749092
46.2335 1.01073 0.00745982
46.3205 1.01512 0.00747601
46.4075 1.01325 0.00746913
46.4945 1.01454 0.00747389
46.5815 0.994196 0.00739857
46.6685 0.993301 0.00739524
46.7555 0.997491 0.00741082
46.8425 0.979702 0.00734444
46.9295 0.989987 0.00738289
47.0165 0.986539 0.00737002
47.1035 0.973284 0.00732034
47.1905 0.977999 0.00733806
47.2775 0.96458 0.00728754
47.3645 0.969358 0.00730556
47.4515 0.963575 0.00728374
47.5385 0.970024 0.00730807
47.6255 0.970143 0.00730852
47.7125 0.956074 0.00725533
47.7995 0.934761 0.00717401
47.8865 0.943245 0.00720649
47.9735 0.925921 0.00714001
48.0605 0.925351 0.00713781
48.1475 0.91368 0.00709266
48.2345 0.919771 0.00711626
48.3215 0.92475 0.00713549
48.4085 0.926271 0.00714136
48.4955 0.908468 0.0070724
48.5825 0.909599 0.0070768
48.6695 0.9057 0.00706161
48.7565 0.890187 0.00700087
48.8435 0.897203 0.00702841
48.9305 0.891908 0.00700764
49.0175 0.88425 0.00697749
49.1045 0.880551 0.00696288
49.1915 0.875373 0.00694238
49.2785 0.872774 0.00693206
49.3655 0.870016 0.0069211
49.4525 0.864587 0.00689948
49.5395 0.865481 0.00690304
49.6265 0.863749 0.00689613
49.7135 0.85474 0.00686007
49.8005 0.852933 0.00685282
49.8875 0.855236 0.00686206
49.9745 0.836184 0.0067852
50.0615 0.835335 0.00678175
50.1485 0.843 0.0068128
50.2355 0.839449 0.00679844
50.3225 0.836922 0.00678819
50.4095 0.819924 0.0067189
50.4965 0.825739 0.00674269
50.5835 0.828056 0.00675214
50.6705 0.819751 0.0067182
50.7575 0.82371 0.0067344
50.8445 0.809801 0.0066773
50.9315 0.809445 0.00667583
51.0185 0.805719 0.00666045
51.1055 0.811659 0.00668496
51.1925 0.799494 0.00663467
51.2795 0.795337 0.0066174
51.3665 0.793338 0.00660908
51.4535 0.790098 0.00659557
51.5405 0.785072 0.00657455
51.6275 0.782693 0.00656459
51.7145 0.789303 0.00659225
51.8015 0.780526 0.00655549
51.8885 0.771141 0.00651596
51.9755 0.773284 0.00652501
52.0625 0.76279 0.00648058
52.1495 0.761693 0.00647592
52.2365 0.770797 0.00651451
52.3235 0.765497 0.00649208
52.4105 0.763442 0.00648336
52.4975 0.756271 0.00645284
52.5845 0.756619 0.00645432
52.6715 0.756261 0.00645279
52.7585 0.76426 0.00648683
52.8455 0.765297 0.00649123
52.9325 0.741386 0.00638902
53.0195 0.753227 0.00643983
53.1065 0.743684 0.00639891
53.1935 0.744962 0.00640441
53.2805 0.739723 0.00638185
53.3675 0.735321 0.00636283
53.4545 0.733161 0.00635348
53.5415 0.735805 0.00636492
53.6285 0.726498 0.00632454
53.7155 0.731477 0.00634618
53.8025 0.719382 0.00629349
53.8895 0.722783 0.00630835
53.9765 0.714107 0.00627037
54.0635 0.72317 0.00631004
54.1505 0.718639 0.00629024
54.2375 0.716692 0.00628171
54.3245 0.715083 0.00627466
54.4115 0.718073 0.00628776
54.4985 0.711171 0.00625747
54.5855 0.70322 0.00622239
54.6725 0.713988 0.00626985
54.7595 0.709771 0.00625131
54.8465 0.705065 0.00623055
54.9335 0.708534 0.00624586
55.0205 0.701356 0.00429467
55.1075 0.695474 0.00427662
55.1945 0.693101 0.00426931
55.2815 0.691269 0.00426367
55.3685 0.689185 0.00425724
55.4555 0.68504 0.00424442
55.5425 0.687204 0.00425112
55.6295 0.682717 0.00423721
55.7165 0.687032 0.00425058
55.8035 0.679655 0.00422769
55.8905 0.678882 0.0042253
55.9775 0.677154 0.00421991
56.0645 0.676874 0.00421902
56.1515 0.676144 0.00421677
56.2385 0.66621 0.00418566
56.3255 0.667712 0.00419039
56.4125 0.664897 0.00418155
56.4995 0.660496 0.00416769
56.5865 0.65946 0.00416442
56.6735 0.657731 0.00415896
56.7605 0.652982 0.00414391
56.8475 0.660221 0.00416682
56.9345 0.649458 0.00413271
57.0215 0.652061 0.00414099
57.1085 0.652243 0.00414157
57.1955 0.648063 0.00412826
57.2825 0.649688 0.00413345
57.3695 0.646178 0.00412227
57.4565 0.645956 0.00412156
57.5435 0.64147 0.00410722
57.6305 0.635956 0.00408953
57.7175 0.636723 0.004092
57.8045 0.631396 0.00407485
57.8915 0.632446 0.00407823
57.9785 0.629591 0.00406901
58.0655 0.628751 0.0040663
58.1525 0.632002 0.0040768
58.2395 0.6238 0.00405026
58.3265 0.624911 0.00405383
58.4135 0.623726 0.00405002
58.5005 0.625051 0.00405431
58.5875 0.613211 0.00401574
58.6745 0.620372 0.0040391
58.7615 0.62005 0.00403806
58.8485 0.611499 0.00401011
58.9355 0.618064 0.00403159
59.0225 0.613156 0.00401554
59.1095 0.609795 0.00400453
59.1965 0.608132 0.00399907
59.2835 0.605522 0.00399048
59.3705 0.608231 0.00399937
59.4575 0.60253 0.0039806
59.5445 0.601267 0.00397643
59.6315 0.600953 0.00397539
59.7185 0.603231 0.00398292
59.8055 0.597105 0.00396265
59.8925 0.600367 0.00397346
59.9795 0.594869 0.00395522
60.0665 0.595134 0.0039561
60.1535 0.591405 0.00394369
60.2405 0.588346 0.00393348
60.3275 0.592432 0.00394711
60.4145 0.592291 0.00394664
60.5015 0.584525 0.00392066
60.5885 0.582977 0.00391549
60.6755 0.585123 0.00392269
60.7625 0.577624 0.00389747
60.8495 0.58016 0.00390601
60.9365 0.575237 0.00388941
61.0235 0.572685 0.00388077
61.1105 0.577993 0.0038987
61.1975 0.571978 0.00387838
61.2845 0.575587 0.00389059
61.3715 0.573908 0.00388491
61.4585 0.571385 0.00387636
61.5455 0.567349 0.00386265
61.6325 0.570359 0.00387288
61.7195 0.568434 0.00386634
61.8065 0.567624 0.00386359
61.8935 0.565629 0.00385679
61.9805 0.562679 0.00384672
62.0675 0.559287 0.0038351
62.1545 0.564441 0.00385274
62.2415 0.56162 0.0038431
62.3285 0.561074 0.00384123
62.4155 0.558559 0.00383261
62.5025 0.55417 0.00381752
62.5895 0.562396 0.00384575
62.6765 0.556444 0.00382535
62.7635 0.556913 0.00382695
62.8505 0.557743 0.00382979
62.9375 0.557082 0.00382754
63.0245 0.555049 0.00382055
63.1115 0.550036 0.00380325
63.1985 0.555035 0.00382048
63.2855 0.549513 0.00380144
63.3725 0.548686 0.00379859
63.4595 0.549323 0.00380078
63.5465 0.549269 0.00380059
63.6335 0.548554 0.00379813
63.7205 0.550307 0.00380419
63.8075 0.541204 0.00377258
63.8945 0.547065 0.00379297
63.9815 0.541225 0.00377267
64.0685 0.54484 0.00378525
64.1555 0.549751 0.00380227
64.2425 0.548504 0.00379795
64.3295 0.541676 0.00377424
64.4165 0.540083 0.00376868
64.5035 0.542591 0.00377743
64.5905 0.541491 0.0037736
64.6775 0.539994 0.00376838
64.7645 0.540933 0.00377165
64.8515 0.537518 0.00375972
64.9385 0.537007 0.00375794
65.0255 0.538522 0.00376324
65.1125 0.537965 0.00376129
65.1995 0.542114 0.00377577
65.2865 0.537952 0.00376125
65.3735 0.531626 0.00373906
65.4605 0.536066 0.00375463
65.5475 0.532791 0.00374316
65.6345 0.535212 0.00375164
65.7215 0.532259 0.00374129
65.8085 0.532688 0.0037428
65.8955 0.532121 0.0037408
65.9825 0.530206 0.00373407
66.0695 0.526652 0.00372151
66.1565 0.531457 0.00373847
66.2435 0.529406 0.00373125
66.3305 0.521162 0.00370208
66.4175 0.527758 0.00372544
66.5045 0.528326 0.00372744
66.5915 0.52763 0.00372498
66.6785 0.524311 0.00371325
66.7655 0.527358 0.00372403
66.8525 0.527166 0.00372335
66.9395 0.522296 0.00370611
67.0265 0.522536 0.00370696
67.1135 0.519931 0.00369771
67.2005 0.520488 0.00369968
67.2875 0.520539 0.00369987
67.3745 0.518153 0.00369139
67.4615 0.516765 0.00368643
67.5485 0.520196 0.00369865
67.6355 0.514989 0.00368009
67.7225 0.518329 0.00369201
67.8095 0.515141 0.00368063
67.8965 0.515622 0.00368236
67.9835 0.509913 0.00366191
68.0705 0.510145 0.00366275
68.1575 0.510441 0.0036638
68.2445 0.514512 0.00367839
68.3315 0.507436 0.00365297
68.4185 0.508553 0.00365703
68.5055 0.507175 0.00365207
68.5925 0.501518 0.00363164
68.6795 0.509298 0.00365971
68.7665 0.507141 0.00365194
68.8535 0.508211 0.0036558
68.9405 0.502195 0.0036341
69.0275 0.502074 0.00363365
69.1145 0.500189 0.00362682
69.2015 0.50076 0.0036289
69.2885 0.501642 0.00363209
69.3755 0.498636 0.00362119
69.4625 0.496275 0.00361261
69.5495 0.49654 0.00361357
69.6365 0.493165 0.00360128
69.7235 0.494289 0.00360538
69.8105 0.491277 0.00359437
69.8975 0.490593 0.00359187
69.9845 0.488294 0.00358344
70.0715 0.486805 0.00357798
70.1585 0.487537 0.00358067
70.2455 0.487006 0.0035787
70.3325 0.484553 0.00356969
70.4195 0.484351 0.00356894
70.5065 0.480716 0.0035555
70.5935 0.481886 0.00355986
70.6805 0.482516 0.00356212
70.7675 0.47568 0.00353684
70.8545 0.479191 0.00354989
70.9415 0.480205 0.00355364
71.0285 0.47073 0.00351841
71.1155 0.473662 0.00352935
71.2025 0.470441 0.0035173
71.2895 0.470128 0.00351616
71.3765 0.472024 0.00352324
71.4635 0.470952 0.00351921
71.5505 0.468591 0.0035104
71.6375 0.466319 0.00350188
71.7245 0.464002 0.00349317
71.8115 0.46073 0.00348083
71.8985 0.46318 0.00349008
71.9855 0.464568 0.0034953
72.0725 0.459921 0.00347777
72.1595 0.456328 0.00346417
72.2465 0.4602 0.00347883
72.3335 0.454575 0.0034575
72.4205 0.45655 0.00346501
72.5075 0.454981 0.00345904
72.5945 0.455791 0.00346212
72.6815 0.449701 0.00343891
72.7685 0.454981 0.00345905
72.8555 0.452348 0.00344903
72.9425 0.451877 0.00344723
73.0295 0.449173 0.00343689
73.1165 0.44502 0.00342097
73.2035 0.446851 0.00342801
73.2905 0.449088 0.00343657
73.3775 0.441789 0.00340853
73.4645 0.442388 0.00341082
73.5515 0.437516 0.00339201
73.6385 0.441385 0.00340697
73.7255 0.440082 0.00340194
73.8125 0.439429 0.00339941
73.8995 0.439356 0.00339914
73.9865 0.437172 0.00339068
74.0735 0.438375 0.00339533
74.1605 0.435815 0.00338541
74.2475 0.433402 0.00337602
74.3345 0.432934 0.0033742
74.4215 0.430649 0.00336528
74.5085 0.429682 0.0033615
74.5955 0.43182 0.00336986
74.6825 0.431995 0.00337054
74.7695 0.4266 0.00334943
74.8565 0.427262 0.00335202
74.9435 0.428245 0.00335587
75.0305 0.424428 0.00334085
75.1175 0.425354 0.00334453
75.2045 0.425275 0.00334422
75.2915 0.425132 0.00334362
75.3785 0.423645 0.0033378
75.4655 0.425983 0.00334699
75.5525 0.428195 0.00335562
75.6395 0.422984 0.0033352
75.7265 0.422435 0.00333304
75.8135 0.421318 0.00332862
75.9005 0.420012 0.00332346
75.9875 0.418701 0.00331827
76.0745 0.417404 0.00331313
76.1615 0.418545 0.00331765
76.2485 0.41809 0.00331585
76.3355 0.420342 0.00332476
76.4225 0.41738 0.00331304
76.5095 0.409808 0.00328284
76.5965 0.413782 0.00329872
76.6835 0.412702 0.00329442
76.7705 0.416931 0.00331125
76.8575 0.408819 0.00327888
76.9445 0.413426 0.0032973
77.0315 0.410298 0.00328481
77.1185 0.408346 0.00327698
77.2055 0.409469 0.00328147
77.2925 0.408453 0.00327738
77.3795 0.406213 0.00326841
77.4665 0.409995 0.00328359
77.5535 0.408645 0.00327818
77.6405 0.407237 0.00327253
77.7275 0.406697 0.00327032
77.8145 0.407216 0.00327244
77.9015 0.406904 0.00327119
77.9885 0.402556 0.00325366
78.0755 0.406363 0.00326901
78.1625 0.401721 0.00325029
78.2495 0.403844 0.00325887
78.3365 0.402074 0.00325172
78.4235 0.402915 0.00325512
78.5105 0.401936 0.00325116
78.5975 0.401283 0.00324851
78.6845 0.400179 0.00324403
78.7715 0.40161 0.00324985
78.8585 0.398042 0.00323537
78.9455 0.399094 0.00323965
79.0325 0.398421 0.00323691
79.1195 0.394711 0.0032218
79.2065 0.397782 0.00323432
79.2935 0.397055 0.00323136
79.3805 0.397734 0.00323412
79.4675 0.400643 0.00324592
79.5545 0.396639 0.00322966
79.6415 0.396371 0.00322858
79.7285 0.395968 0.00322693
79.8155 0.393841 0.00321826
79.9025 0.393353 0.00321624
79.9895 0.392655 0.00321341
80.0765 0.396971 0.00323101
80.1635 0.393393 0.00321642
80.2505 0.389786 0.00320162
80.3375 0.396426 0.00322879
80.4245 0.387759 0.00319331
80.5115 0.389106 0.00319884
80.5985 0.390156 0.00320317
80.6855 0.387827 0.00319358
80.7725 0.391664 0.00320934
80.8595 0.389643 0.00320106
80.9465 0.389744 0.00320147
81.0335 0.394095 0.00321928
81.1205 0.390056 0.00320276
81.2075 0.38892 0.00319809
81.2945 0.38874 0.00319735
81.3815 0.387951 0.0031941
81.4685 0.385157 0.00318258
81.5555 0.384136 0.00317835
81.6425 0.388631 0.0031969
81.7295 0.383732 0.00317668
81.8165 0.386179 0.0031868
81.9035 0.380443 0.00316304
81.9905 0.388253 0.00319534
82.0775 0.384818 0.00318118
82.1645 0.383293 0.00317487
82.2515 0.381299 0.00316658
82.3385 0.385501 0.00318399
82.4255 0.385248 0.0031829
82.5125 0.382 0.0031695
82.5995 0.382888 0.00317314
82.6865 0.379813 0.00316042
82.7735 0.380666 0.00316397
82.8605 0.379379 0.00315862
82.9475 0.37802 0.00315295
83.0345 0.379727 0.00316006
83.1215 0.378273 0.00315401
83.2085 0.378042 0.00315304
83.2955 0.380278 0.00316235
83.3825 0.377098 0.0031491
83.4695 0.379949 0.00316099
83.5565 0.379039 0.0031572
83.6435 0.378147 0.00315348
83.7305 0.376796 0.00314784
83.8175 0.377421 0.00315044
83.9045 0.377391 0.00315033
83.9915 0.377719 0.0031517
84.0785 0.374904 0.00313992
84.1655 0.378049 0.00315307
84.2525 0.377843 0.00315221
84.3395 0.374921 0.00314
84.4265 0.373997 0.00313611
84.5135 0.373791 0.00313524
84.6005 0.376816 0.00314792
84.6875 0.373052 0.00313217
84.7745 0.376603 0.00314704
84.8615 0.376504 0.00314662
84.9485 0.371486 0.00312557
85.0355 0.373017 0.00313202
85.1225 0.374353 0.00313762
85.2095 0.367862 0.0031103
85.2965 0.37372 0.00313494
85.3835 0.374428 0.00313794
85.4705 0.369882 0.00311883
85.5575 0.365433 0.00310001
85.6445 0.369157 0.00311577
85.7315 0.371104 0.00312396
85.8185 0.372256 0.00312882
85.9055 0.371383 0.00312515
85.9925 0.367922 0.00311055
86.0795 0.368198 0.00311172
86.1665 0.374228 0.0031371
86.2535 0.370097 0.00311973
86.3405 0.369956 0.00311914
86.4275 0.368476 0.0031129
86.5145 0.368841 0.00311444
86.6015 0.373195 0.00313277
86.6885 0.370488 0.00312138
86.7755 0.368405 0.00311259
86.8625 0.367576 0.00310909
86.9495 0.365192 0.00309897
87.0365 0.364713 0.00309691
87.1235 0.37165 0.00312627
87.2105 0.367379 0.00310824
87.2975 0.369354 0.0031166
87.3845 0.366509 0.00310458
87.4715 0.365021 0.00309826
87.5585 0.371449 0.00312543
87.6455 0.36756 0.00310902
87.7325 0.366102 0.00310285
87.8195 0.363552 0.00309203
87.9065 0.363742 0.00309283
87.9935 0.371046 0.00312373
88.0805 0.36669 0.00310534
88.1675 0.36897 0.00311498
88.2545 0.364559 0.00309631
88.3415 0.366417 0.00310418
88.4285 0.362532 0.00308769
88.5155 0.366177 0.00310317
88.6025 0.361758 0.00308439
88.6895 0.366934 0.00310632
88.7765 0.365712 0.0031012
88.8635 0.361333 0.00308258
88.9505 0.361607 0.00308374
89.0375 0.360877 0.00308063
89.1245 0.363233 0.00309067
89.2115 0.361647 0.00308391
89.2985 0.363122 0.0030902
89.3855 0.360213 0.00307778
89.4725 0.362706 0.00308843
89.5595 0.363833 0.00309322
89.6465 0.360083 0.00307724
89.7335 0.360476 0.00307892
89.8205 0.361961 0.00308526
89.9075 0.363338 0.00309112
89.9945 0.366989 0.00310661
90.0815 0.359343 0.00307407
90.1685 0.361996 0.00308541
90.2555 0.358556 0.00307071
90.3425 0.362133 0.00308598
90.4295 0.364562 0.00309631
90.5165 0.362002 0.00308542
90.6035 0.360699 0.00307987
90.6905 0.360512 0.00307907
90.7775 0.359171 0.00307334
90.8645 0.358936 0.00307232
90.9515 0.359582 0.0030751
91.0385 0.359342 0.00307405
91.1255 0.358764 0.0030716
91.2125 0.359933 0.0030766
91.2995 0.360306 0.00307819
91.3865 0.360257 0.00307798
91.4735 0.361413 0.00308292
91.5605 0.356746 0.00306294
91.6475 0.362289 0.00308663
91.7345 0.354712 0.0030542
91.8215 0.360916 0.00308076
91.9085 0.362694 0.00308838
91.9955 0.360782 0.00308022
92.0825 0.359105 0.00307306
92.1695 0.356188 0.00306055
92.2565 0.362795 0.00308881
92.3435 0.354528 0.00305341
92.4305 0.359472 0.00307462
92.5175 0.359446 0.00307452
92.6045 0.358083 0.00306868
92.6915 0.35618 0.00306051
92.7785 0.358427 0.00307016
92.8655 0.355669 0.00305832
92.9525 0.355497 0.00305758
93.0395 0.357946 0.00306809
93.1265 0.356504 0.00306191
93.2135 0.355625 0.00305813
93.3005 0.356048 0.00305994
93.3875 0.357561 0.00306644
93.4745 0.359296 0.00307388
93.5615 0.356144 0.00306036
93.6485 0.35737 0.00306562
93.7355 0.357181 0.00306481
93.8225 0.358667 0.00307116
93.9095 0.358971 0.00307247
93.9965 0.353388 0.00304849
94.0835 0.357518 0.00306624
94.1705 0.357053 0.00306426
94.2575 0.359733 0.00307574
94.3445 0.355736 0.00305859
94.4315 0.352903 0.0030464
94.5185 0.363008 0.0030897
94.6055 0.357495 0.00306616
94.6925 0.358274 0.0030695
94.7795 0.354893 0.00305498
94.8665 0.357998 0.00306832
94.9535 0.355786 0.00305882
95.0405 0.359071 0.00307291
95.1275 0.359868 0.00307632
95.2145 0.354893 0.00305498
95.3015 0.35363 0.00304952
95.3885 0.353793 0.00305024
95.4755 0.358372 0.00306992
95.5625 0.353851 0.0030505
95.6495 0.359155 0.00307326
95.7365 0.356391 0.00306142
95.8235 0.353961 0.00305095
95.9105 0.353672 0.00304972
95.9975 0.359567 0.00307503
96.0845 0.357252 0.00306512
96.1715 0.353686 0.00304978
96.2585 0.355148 0.00305608
96.3455 0.355863 0.00305913
96.4325 0.35704 0.00306421
96.5195 0.356158 0.00306043
96.6065 0.356662 0.00306258
96.6935 0.354246 0.0030522
96.7805 0.360468 0.00307889
96.8675 0.353799 0.00305024
96.9545 0.355385 0.0030571
97.0415 0.3581 0.00306875
97.1285 0.353238 0.00304785
97.2155 0.359321 0.00307397
97.3025 0.357707 0.00306707
97.3895 0.354329 0.00305256
97.4765 0.355308 0.00305677
97.5635 0.357579 0.00306652
97.6505 0.354445 0.00305305
97.7375 0.357299 0.00306532
97.8245 0.357339 0.00306549
97.9115 0.353837 0.00305044
97.9985 0.355649 0.00305823
98.0855 0.354077 0.00305147
98.1725 0.355545 0.00305779
98.2595 0.353682 0.00304977
98.3465 0.355024 0.00305554
98.4335 0.356963 0.00306388
98.5205 0.354552 0.00305351
98.6075 0.352187 0.00304331
98.6945 0.358619 0.00307098
98.7815 0.361066 0.00308144
98.8685 0.356199 0.0030606
98.9555 0.356194 0.00306056
99.0425 0.354926 0.00305513
99.1295 0.356514 0.00306195
99.2165 0.357894 0.00306786
99.3035 0.35148 0.00304026
99.3905 0.353864 0.00305053
99.4775 0.356271 0.00306091
99.5645 0.353303 0.00304813
99.6515 0.355072 0.00305574
99.7385 0.360911 0.00308078
99.8255 0.354208 0.00305201
99.9125 0.350515 0.00303607
99.9995 0.355077 0.00305574
100.087 0.357877 0.0030678
100.174 0.354118 0.00305164
100.261 0.357155 0.0030647
100.348 0.354848 0.00305479
100.435 0.353475 0.00304888
100.522 0.356508 0.00306192
100.609 0.355233 0.00305645
100.696 0.356268 0.00306087
100.783 0.353194 0.00304766
100.87 0.35425 0.00305222
100.957 0.349742 0.00303272
101.044 0.352097 0.00304289
101.131 0.354921 0.0030551
101.218 0.355873 0.00305913
101.305 0.353251 0.00304791
101.392 0.357508 0.00306621
101.479 0.353766 0.00305013
101.566 0.352612 0.00304511
101.653 0.355324 0.00305683
101.74 0.353452 0.00304877
101.827 0.355341 0.00305691
101.914 0.349117 0.00303002
102.001 0.356489 0.00306185
102.088 0.350918 0.00303783
102.175 0.352916 0.00304646
102.262 0.352846 0.00304615
102.349 0.355855 0.00305911
102.436 0.354454 0.00305307
102.523 0.350082 0.00303421
102.61 0.356833 0.00306332
102.697 0.351247 0.00303925
102.784 0.353085 0.00304718
102.871 0.353524 0.00304909
102.958 0.351794 0.00304161
103.045 0.351062 0.00303845
103.132 0.352365 0.00304408
103.219 0.353177 0.00304759
103.306 0.350271 0.00303501
103.393 0.351461 0.00304017
103.48 0.359636 0.00307533
103.567 0.355414 0.00305723
103.654 0.356093 0.00306014
103.741 0.350252 0.00303494
103.828 0.351706 0.00304124
103.915 0.3522 0.00304337
104.002 0.355987 0.00305969
104.089 0.354688 0.00305409
104.176 0.352982 0.00304675
104.263 0.355432 0.0030573
104.35 0.356118 0.00306025
104.437 0.354622 0.00305382
104.524 0.351153 0.00303884
104.611 0.353494 0.00304895
104.698 0.352794 0.00304593
104.785 0.352848 0.00304616
104.872 0.357689 0.00306699
104.959 0.356095 0.00306015
105.046 0.35582 0.00305896
105.133 0.356204 0.00306062
105.22 0.352897 0.00304638
105.307 0.357959 0.00306815
105.394 0.354255 0.00305224
105.481 0.355499 0.00305759
105.568 0.354601 0.00305369
105.655 0.358047 0.00306853
105.742 0.352805 0.00304597
105.829 0.354367 0.00305268
105.916 0.35381 0.00305032
106.003 0.354371 0.0030527
106.09 0.355591 0.00305798
106.177 0.358597 0.00307087
106.264 0.355092 0.00305583
106.351 0.355921 0.0030594
106.438 0.358025 0.00306843
106.525 0.352794 0.00304593
106.612 0.354052 0.00305136
106.699 0.359072 0.00307292
106.786 0.354093 0.00305154
106.873 0.356237 0.00306076
106.96 0.355826 0.00305899
107.047 0.356982 0.00306396
107.134 0.354046 0.00305133
107.221 0.360807 0.00308033
107.308 0.356963 0.00306386
107.395 0.359435 0.00307447
107.482 0.352097 0.00304293
107.569 0.358449 0.00307024
107.656 0.358063 0.0030686
107.743 0.354615 0.00305379
107.83 0.357122 0.00306456
107.917 0.357054 0.00306427
108.004 0.360542 0.0030792
108.091 0.358636 0.00307105
108.178 0.354492 0.00305326
108.265 0.360665 0.00307969
108.352 0.360741 0.00308005
108.439 0.358436 0.00307019
108.526 0.360255 0.00307794
108.613 0.359054 0.00307284
108.7 0.357261 0.00306516
108.787 0.360339 0.0030783
108.874 0.363821 0.00309317
108.961 0.360924 0.00308083
109.048 0.362294 0.00308666
109.135 0.362944 0.00308944
109.222 0.358043 0.00306851
109.309 0.355241 0.00305647
109.396 0.360179 0.00307765
109.483 0.361596 0.00308369
109.57 0.363078 0.00309001
109.657 0.361961 0.00308525
109.744 0.362952 0.00308947
109.831 0.36376 0.00309291
109.918 0.361638 0.00308387
109.976 0.362947 0.00308945