File: exp_pxrd_data/crystalyze/Ca2MnTeO6/Ca2_Mn_Te_O6_raw.xy
   5     2177.2
   5.1     2129.3
   5.2     2119
   5.3     2048.6
   5.4     2116.6
   5.5     2061
   5.6     2048.3
   5.7     2071
   5.8     2116.6
   5.9     2124.1
   6     2116.6
   6.1     2078.6
   6.2     2063.4
   6.3     1995.2
   6.4     2002.8
   6.5     2040.7
   6.6     2017.9
   6.7     1998.6
   6.8     1985.4
   6.9     1969.7
   7     1933.4
   7.1     1962.4
   7.2     1955.2
   7.3     1940.7
   7.4     1955.2
   7.5     1919
   7.6     1889.7
   7.7     1875.9
   7.8     1862.1
   7.9     1869
   8     1827.6
   8.1     1820.7
   8.2     1875.9
   8.3     1862.1
   8.4     1834.5
   8.5     1788.6
   8.6     1795.2
   8.7     1782.1
   8.8     1775.5
   8.9     1807.7
   9     1788.6
   9.1     1769
   9.2     1737.9
   9.3     1700.7
   9.4     1700.7
   9.5     1705
   9.6     1688.3
   9.7     1688.3
   9.8     1651
   9.9     1663.4
   10     1657.2
   10.1     1682.1
   10.2     1657.2
   10.3     1626.2
   10.4     1601.4
   10.5     1601.4
   10.6     1607.6
   10.7     1601.4
   10.8     1582.8
   10.9     1547.6
   11     1543.4
   11.1     1530
   11.2     1506
   11.3     1489
   11.4     1503
   11.5     1494.8
   11.6     1497
   11.7     1518.3
   11.8     1500.2
   11.9     1478.6
   12     1489.7
   12.1     1456.6
   12.2     1447
   12.3     1422
   12.4     1434.5
   12.5     1419
   12.6     1412.1
   12.7     1401.7
   12.8     1396.6
   12.9     1372.7
   13     1358
   13.1     1370.7
   13.2     1365.5
   13.3     1346.9
   13.4     1317.9
   13.5     1307
   13.6     1340.1
   13.7     1308.3
   13.8     1308.3
   13.9     1303.4
   14     1300
   14.1     1313.1
   14.2     1307.9
   14.3     1295
   14.4     1313.1
   14.5     1289
   14.6     1257
   14.7     1258
   14.8     1250.3
   14.9     1269.7
   15     1252
   15.1     1246.2
   15.2     1214.8
   15.3     1219.3
   15.4     1219.3
   15.5     1230
   15.6     1232.8
   15.7     1201.4
   15.8     1205.9
   15.9     1219.3
   16     1219.3
   16.1     1205.9
   16.2     1183.4
   16.3     1148
   16.4     1152.1
   16.5     1163
   16.6     1140
   16.7     1154
   16.8     1120.7
   16.9     1129.7
   17     1129.7
   17.1     1091
   17.2     1107.2
   17.3     1100.7
   17.4     1100.7
   17.5     1076
   17.6     1080
   17.7     1100
   17.8     1080
   17.9     1075.9
   18     1063.4
   18.1     1073
   18.2     1078.9
   18.3     1080
   18.4     1063.4
   18.5     1034.5
   18.6     1054
   18.7     1046.9
   18.8     1034.5
   18.9     1047
   19     1046.9
   19.1     1265
   19.2     2655.2
   19.3     21848.3
   19.4     7693.1
   19.5     1508
   19.6     3399
   19.7     12823
   19.8     8638
   19.9     1415
   20     1101
   20.1     1040.8
   20.2     1018
   20.3     986
   20.4     955.7
   20.5     949.7
   20.6     937.2
   20.7     924.8
   20.8     937
   20.9     941
   21     955.9
   21.1     925.5
   21.2     936.9
   21.3     933.1
   21.4     929.3
   21.5     931
   21.6     936.9
   21.7     940.7
   21.8     948
   21.9     933.1
   22     951
   22.1     967.2
   22.2     1105
   22.3     1266
   22.4     2505
   22.5     26724.1
   22.6     21110
   22.7     15820.7
   22.8     2886.2
   22.9     1107
   23     1043
   23.1     971
   23.2     917.9
   23.3     902.8
   23.4     869
   23.5     865
   23.6     863
   23.7     830.7
   23.8     849.7
   23.9     823
   24     834.8
   24.1     831.7
   24.2     813.3
   24.3     810.2
   24.4     819.4
   24.5     819
   24.6     816.3
   24.7     816.3
   24.8     816.3
   24.9     807.1
   25     803
   25.1     897.9
   25.2     2201.4
   25.3     2326.9
   25.4     994.5
   25.5     811
   25.6     797
   25.7     789
   25.8     791.4
   25.9     776.7
   26     759.1
   26.1     768
   26.2     770.9
   26.3     794.3
   26.4     794.3
   26.5     773.8
   26.6     779.7
   26.7     794.3
   26.8     797.2
   26.9     791.4
   27     803.1
   27.1     785.5
   27.2     788.4
   27.3     772.8
   27.4     761.3
   27.5     752.7
   27.6     755.6
   27.7     761.3
   27.8     761.3
   27.9     769.9
   28     775.6
   28.1     761.3
   28.2     747
   28.3     752
   28.4     765
   28.5     750
   28.6     746.4
   28.7     751.9
   28.8     757.3
   28.9     743.7
   29     741
   29.1     738.2
   29.2     746.4
   29.3     733
   29.4     725.9
   29.5     723.3
   29.6     712
   29.7     715.4
   29.8     710.2
   29.9     710.2
   30     702.3
   30.1     697.1
   30.2     705
   30.3     702.3
   30.4     706.7
   30.5     687.1
   30.6     682
   30.7     689.9
   30.8     684.3
   30.9     684.3
   31     695.5
   31.1     720.6
   31.2     782
   31.3     910.3
   31.4     1229
   31.5     5600
   31.6     18344.8
   31.7     8303.4
   31.8     1650
   31.9     1698
   32     5406.9
   32.1     38813.8
   32.2     54518
   32.3     26106
   32.4     4534
   32.5     10437
   32.6     14742
   32.7     4171
   32.8     1185
   32.9     883.1
   33     771
   33.1     717.2
   33.2     667.9
   33.3     641
   33.4     645.5
   33.5     688
   33.6     1012.8
   33.7     955.9
   33.8     727
   33.9     660
   34     641
   34.1     648
   34.2     633.1
   34.3     643
   34.4     633.1
   34.5     653
   34.6     648
   34.7     645.5
   34.8     645.5
   34.9     644
   35     648
   35.1     650.5
   35.2     646
   35.3     640
   35.4     644
   35.5     667.6
   35.6     949
   35.7     1053.8
   35.8     750.3
   35.9     634.5
   36     615
   36.1     629
   36.2     811
   36.3     1589
   36.4     1191.7
   36.5     717.2
   36.6     640
   36.7     627
   36.8     612.4
   36.9     617.9
   37     622.3
   37.1     629
   37.2     662
   37.3     734.9
   37.4     2160
   37.5     4460.7
   37.6     2670.3
   37.7     968
   37.8     1320
   37.9     2610
   38     2973.8
   38.1     7805
   38.2     6956
   38.3     2417
   38.4     859
   38.5     681
   38.6     663
   38.7     673
   38.8     645
   38.9     631.7
   39     628.7
   39.1     691
   39.2     1125.5
   39.3     968.3
   39.4     686.9
   39.5     623
   39.6     614.5
   39.7     610.7
   39.8     626
   39.9     834.5
   40     880
   40.1     1027.9
   40.2     834.5
   40.3     660
   40.4     595.5
   40.5     587.9
   40.6     591.7
   40.7     586
   40.8     599
   40.9     605.2
   41     611.9
   41.1     620.9
   41.2     626.9
   41.3     1036.6
   41.4     1353.1
   41.5     1750.3
   41.6     1204.1
   41.7     707.6
   41.8     614.5
   41.9     619
   42     597
   42.1     616.8
   42.2     628.1
   42.3     637.2
   42.4     631
   42.5     748.3
   42.6     1351.7
   42.7     1374
   42.8     982.8
   42.9     677.6
   43     605.2
   43.1     796.6
   43.2     857
   43.3     884.5
   43.4     698.3
   43.5     619
   43.6     612
   43.7     600.3
   43.8     593.2
   43.9     586.2
   44     586.2
   44.1     590.9
   44.2     581.5
   44.3     590.9
   44.4     590.9
   44.5     593.2
   44.6     590.9
   44.7     571.4
   44.8     571.4
   44.9     579
   45     566.4
   45.1     584
   45.2     594.1
   45.3     596.6
   45.4     626.8
   45.5     692.2
   45.6     759
   45.7     877
   45.8     1862.1
   45.9     10620.7
   46     17724.1
   46.1     11379.3
   46.2     7446
   46.3     11931
   46.4     7241.4
   46.5     2620.7
   46.6     962
   46.7     733
   46.8     703.4
   46.9     671
   47     654
   47.1     648.3
   47.2     887.6
   47.3     1483.4
   47.4     1477.2
   47.5     1750.3
   47.6     1346.9
   47.7     857
   47.8     609
   47.9     580
   48     565
   48.1     577.2
   48.2     575.1
   48.3     575
   48.4     575.1
   48.5     591
   48.6     590.9
   48.7     584.4
   48.8     580
   48.9     575.7
   49     571.3
   49.1     575.7
   49.2     586.6
   49.3     600.3
   49.4     589.2
   49.5     642.1
   49.6     1192.4
   49.7     1100.7
   49.8     917.2
   49.9     656.6
   50     622.8
   50.1     644.8
   50.2     1357.9
   50.3     2002.8
   50.4     1479.3
   50.5     819.3
   50.6     660
   50.7     733.8
   50.8     926.9
   50.9     2278.6
   51     2124.1
   51.1     4750.3
   51.2     4634.5
   51.3     3012.4
   51.4     1042.8
   51.5     780
   51.6     951.7
   51.7     2048.3
   51.8     4469
   51.9     5330.3
   52     5696.6
   52.1     5193.1
   52.2     3435
   52.3     2050
   52.4     2400.7
   52.5     4048.6
   52.6     3214
   52.7     1770
   52.8     846
   52.9     660
   53     604.9
   53.1     571.1
   53.2     572
   53.3     564.3
   53.4     570
   53.5     567.7
   53.6     574.5
   53.7     615.9
   53.8     787.7
   53.9     914.1
   54     801.1
   54.1     658
   54.2     591.4
   54.3     581.2
   54.4     561
   54.5     559
   54.6     570
   54.7     561
   54.8     564.4
   54.9     564
   55     575
   55.1     575.1
   55.2     581.5
   55.3     584.4
   55.4     568.7
   55.5     573.9
   55.6     581.8
   55.7     587
   55.8     605.4
   55.9     613.2
   56     611
   56.1     621
   56.2     629
   56.3     774
   56.4     973
   56.5     3849
   56.6     10048
   56.7     8276
   56.8     5212
   56.9     1928
   57     2653
   57.1     7137.9
   57.2     5689.7
   57.3     3824
   57.4     1523
   57.5     1905
   57.6     4726
   57.7     9176
   57.8     12879.3
   57.9     14689.7
   58     9644
   58.1     5293
   58.2     1784
   58.3     877
   58.4     743.4
   58.5     704
   58.6     688.8
   58.7     673.7
   58.8     643.3
   58.9     616
   59     591.7
   59.1     579.6
   59.2     573.5
   59.3     574
   59.4     564.8
   59.5     586.2
   59.6     562.6
   59.7     566
   59.8     576
   59.9     578.3
   60     637
   60.1     749
   60.2     754
   60.3     724.1
   60.4     801.7
   60.5     1245
   60.6     1844.8
   60.7     1775.9
   60.8     1327.6
   60.9     867
   61     645
   61.1     672.4
   61.2     1086.2
   61.3     2025.9
   61.4     2431
   61.5     2224.1
   61.6     1862.1
   61.7     1474.1
   61.8     1137.9
   61.9     870.7
   62     706.9
   62.1     629.3
   62.2     603.4
   62.3     592
   62.4     594.8
   62.5     582.8
   62.6     587
   62.7     582.8
   62.8     600
   62.9     703.8
   63     1053.4
   63.1     1179
   63.2     972.8
   63.3     771
   63.4     605.2
   63.5     573.8
   63.6     576
   63.7     580.5
   63.8     580.5
   63.9     578
   64     591.7
   64.1     572.1
   64.2     574.5
   64.3     654.2
   64.4     628.4
   64.5     668.3
   64.6     595.6
   64.7     581.5
   64.8     553.4
   64.9     558
   65     555.9
   65.1     553.6
   65.2     555.9
   65.3     555.9
   65.4     560.3
   65.5     567.1
   65.6     571.6
   65.7     603.4
   65.8     870.7
   65.9     2063
   66     2137.9
   66.1     1629.3
   66.2     1172.4
   66.3     658
   66.4     602
   66.5     594.8
   66.6     606
   66.7     617
   66.8     635
   66.9     661
   67     932
   67.1     2900
   67.2     5402
   67.3     4782.8
   67.4     7023.1
   67.5     3972
   67.6     2964
   67.7     1552
   67.8     813
   67.9     693
   68     719
   68.1     1535.5
   68.2     2542.4
   68.3     1837.6
   68.4     1636.2
   68.5     998
   68.6     701
   68.7     617.2
   68.8     582.8
   68.9     591
   69     579.3
   69.1     579.3
   69.2     569
   69.3     584.1
   69.4     680.7
   69.5     1197.2
   69.6     1235.9
   69.7     999.3
   69.8     912.4
   69.9     651.7
   70     613.1
   70.1     606
   70.2     682.8
   70.3     856
   70.4     1387
   70.5     1581
   70.6     2141
   70.7     3106.6
   70.8     2253.1
   70.9     2275.9
   71     2118
   71.1     1763.8
   71.2     1956
   71.3     2229
   71.4     3095.2
   71.5     3129.3
   71.6     2868
   71.7     2435.2
   71.8     1724
   71.9     1157
   72     897
   72.1     684
   72.2     821
   72.3     1183.4
   72.4     1194.8
   72.5     1043
   72.6     1284
   72.7     1627.2
   72.8     1485
   72.9     1621
   73     1513
   73.1     1071
   73.2     887.6
   73.3     716.9
   73.4     587
   73.5     569
   73.6     564.4
   73.7     564.4
   73.8     571.2
   73.9     571.2
   74     571.2
   74.1     569
   74.2     569
   74.3     571.2
   74.4     569
   74.5     566.7
   74.6     566.4
   74.7     569
   74.8     569
   74.9     579
   75     584.5
   75.1     600
   75.2     638.8
   75.3     753
   75.4     1429
   75.5     2284.1
   75.6     1365.5
   75.7     1555.9
   75.8     976.6
   75.9     681
   76     681
   76.1     856.6
   76.2     1980
   76.3     2854
   76.4     3315.2
   76.5     3188.3
   76.6     3230
   76.7     4426
   76.8     4140
   76.9     4452
   77     3742
   77.1     3838.6
   77.2     2189
   77.3     1741
   77.4     1157.9
   77.5     809
   77.6     733.8
   77.7     717.2
   77.8     722.8
   77.9     706.2
   78     700.7
   78.1     695.2
   78.2     695.2
   78.3     722.8
   78.4     696
   78.5     695.2
   78.6     705.5
   78.7     811.7
   78.8     1069.7
   78.9     952.1
   79     861
   79.1     826.9
   79.2     690.3
   79.3     751
   79.4     899
   79.5     792.8
   79.6     754.8
   79.7     713.1
   79.8     724
   79.9     1289.7
   80     1944.8
   80.1     1965.5
   80.2     1586.2
   80.3     1379.3
   80.4     1071.7
   80.5     806.9
   80.6     786.2
   80.7     782.1
   80.8     1039
   80.9     1509.7
   81     1441.4
   81.1     1213.8
   81.2     1168.3
   81.3     1050
   81.4     1209.3
   81.5     1441
   81.6     1658.3
   81.7     2092.8
   81.8     1709
   81.9     1393
   82     1261
   82.1     955.9
   82.2     783
   82.3     728.3
   82.4     678.6
   82.5     642.2
   82.6     633
   82.7     619
   82.8     622.3
   82.9     609.1
   83     615.7
   83.1     609.1
   83.2     619
   83.3     604
   83.4     599.2
   83.5     609.1
   83.6     595.9
   83.7     599.2
   83.8     592.6
   83.9     589.2
   84     599.3
   84.1     644.8
   84.2     1054.5
   84.3     2025.5
   84.4     1805.5
   84.5     1259.3
   84.6     1388.3
   84.7     949
   84.8     637.2
   84.9     576.6
   85     584.1
   85.1     576.6
   85.2     583.4
   85.3     603.8
   85.4     662.4
   85.5     902.8
   85.6     986.9
   85.7     809
   85.8     813.1
   85.9     773.8
   86     732.4
   86.1     1034
   86.2     1477.2
   86.3     1148.3
   86.4     1066.9
   86.5     1459.7
   86.6     1688.3
   86.7     1315.9
   86.8     1184.1
   86.9     1283.8
   87     961
   87.1     765
   87.2     725
   87.3     707.6
   87.4     664.1
   87.5     663
   87.6     662.1
   87.7     655.2
   87.8     779.3
   87.9     1282
   88     1813.8
   88.1     1275.9
   88.2     1236
   88.3     1420.7
   88.4     1013.8
   88.5     871
   88.6     1000
   88.7     861
   88.8     1017
   88.9     1150
   89     1172.4
   89.1     1386
   89.2     1365.5
   89.3     1262.1
   89.4     1103.4
   89.5     1049
   89.6     1160
   89.7     1006.9
   89.8     1317.2
   89.9     1806.9
   90     1318
   90.1     1340
   90.2     1462.1
   90.3     958.6
   90.4     820.7
   90.5     765.5
   90.6     638
   90.7     606.9
   90.8     600
   90.9     600.8
   91     682.8
   91.1     822.3
   91.2     807.2
   91.3     786
   91.4     861
   91.5     747
   91.6     684
   91.7     675
   91.8     624
   91.9     597.8
   92     603.9
   92.1     655.2
   92.2     744.8
   92.3     1144
   92.4     1869
   92.5     1496.6
   92.6     1131
   92.7     1310.3
   92.8     1048.3
   92.9     753
   93     694.5
   93.1     864.8
   93.2     1480.7
   93.3     1677.2
   93.4     1847.6
   93.5     2096.6
   93.6     1613
   93.7     1926.2
   93.8     2628
   93.9     2280
   94     1991.7
   94.1     1665
   94.2     1486
   94.3     1310.3
   94.4     1041
   94.5     1118
   94.6     2337
   94.7     3364
   94.8     2107
   94.9     1750
   95     3118.6
   95.1     3747.6
   95.2     2913
   95.3     2476.6
   95.4     3669
   95.5     3053.1
   95.6     3000.7
   95.7     3171
   95.8     1890
   95.9     1598.6
   96     1611.7
   96.1     1058
   96.2     825.5
   96.3     741.5
   96.4     748.1
   96.5     748.1
   96.6     771.3
   96.7     754.8
   96.8     748.1
   96.9     734.9
   97     741.5
   97.1     771
   97.2     761.4
   97.3     748.1
   97.4     762.8
   97.5     864.1
   97.6     1018.6
   97.7     960.7
   97.8     1033.1
   97.9     1342.1
   98     1240.7
   98.1     1028.3
   98.2     1246
   98.3     1260
   98.4     965.5
   98.5     941.4
   98.6     1099
   98.7     1092
   98.8     902.8
   98.9     815.9
   99     859.3
   99.1     782.1
   99.2     724.1
   99.3     704.8
   99.4     718
   99.5     693
   99.6     668.6
   99.7     658.3
   99.8     663.4
   99.9     673.7
   100     668.6
   100.1     650
   100.2     648.1
   100.3     649
   100.4     650.7
   100.5     644
   100.6     637.9
   100.7     630.3
   100.8     630.3
   100.9     637.9
   101     637.9
   101.1     643
   101.2     632.8
   101.3     630.3
   101.4     637.9
   101.5     637.9
   101.6     630.3
   101.7     640.5
   101.8     645.6
   101.9     649
   102     662.1
   102.1     662.1
   102.2     672.4
   102.3     680
   102.4     662
   102.5     687.9
   102.6     838
   102.7     1324.1
   102.8     1422.4
   102.9     962.1
   103     884.5
   103.1     1058
   103.2     915.5
   103.3     734.5
   103.4     708.6
   103.5     827.6
   103.6     1210.3
   103.7     1241.4
   103.8     1008.6
   103.9     1117.2
   104     1210.3
   104.1     982.8
   104.2     812.1
   104.3     817.2
   104.4     724.1
   104.5     682.8
   104.6     705.9
   104.7     751.9
   104.8     865.4
   104.9     841
   105     880.8
   105.1     797.9
   105.2     801
   105.3     787.6
   105.4     748.8
   105.5     721.7
   105.6     762
   105.7     944
   105.8     1555.2
   105.9     1813.1
   106     1729.7
   106.1     1479.3
   106.2     2082
   106.3     1919.3
   106.4     1320
   106.5     1160.7
   106.6     1320
   106.7     1115.2
   106.8     963.4
   106.9     902.8
   107     996.6
   107.1     1254.5
   107.2     1534
   107.3     1586
   107.4     1576.9
   107.5     1641.4
   107.6     1489
   107.7     1289.7
   107.8     1282
   107.9     1184.1
   108     1066.9
   108.1     1061
   108.2     1178.3
   108.3     1453.8
   108.4     1559.3
   108.5     1266.2
   108.6     1160.7
   108.7     1242.8
   108.8     1238
   108.9     1079
   109     963
   109.1     923.4
   109.2     957
   109.3     1039
   109.4     1232.8
   109.5     1147.6
   109.6     941.4
   109.7     897
   109.8     968.3
   109.9     927
   110     789
   110.1     744.1
   110.2     699
   110.3     732
   110.4     744.8
   110.5     757.2
   110.6     850.3
   110.7     1198
   110.8     1620
   110.9     1634
   111     1464.8
   111.1     1229
   111.2     1229
   111.3     1235.2
   111.4     1098.6
   111.5     906.2
   111.6     784
   111.7     757.2
   111.8     748.3
   111.9     772.4
   112     885
   112.1     1243.1
   112.2     1508.6
   112.3     1315.5
   112.4     1327.6
   112.5     2256.9
   112.6     3029.3
   112.7     2546.6
   112.8     2124.1
   112.9     2795
   113     3401
   113.1     2884.5
   113.2     2667.2
   113.3     3077.6
   113.4     2722
   113.5     1790
   113.6     1429
   113.7     1617.2
   113.8     1370
   113.9     1050
   114     965.5
   114.1     1237
   114.2     1534
   114.3     1403
   114.4     1354
   114.5     1327.6
   114.6     1294
   114.7     1182.8
   114.8     1104
   114.9     1037
   115     948
   115.1     883
   115.2     856.9
   115.3     869
   115.4     869
   115.5     862.8
   115.6     875.2
   115.7     875.2
   115.8     878
   115.9     969.7
   116     1159.7
   116.1     1533.1
   116.2     1441.4
   116.3     1212.1
   116.4     1190
   116.5     1461
   116.6     1791
   116.7     1533.1
   116.8     1216.6
   116.9     1074.5
   117     1166.2
   117.1     1185.9
   117.2     1032
   117.3     933
   117.4     904.1
   117.5     860.7
   117.6     860.7
   117.7     939.3
   117.8     1166.9
   117.9     1013.8
   118     864.8
   118.1     827.6
   118.2     885.5
   118.3     951.7
   118.4     840
   118.5     798.6
   118.6     790.3
   118.7     815.2
   118.8     815.2
   118.9     811
   119     820.3
   119.1     887.6
   119.2     1004.1
   119.3     1237.2
   119.4     1192.4
   119.5     1017.6
   119.6     959.3
   119.7     995.2
   119.8     1062.4
   119.9     1004.1
   120     914.5
   120.1     865.2
   120.2     842.8
   120.3     844.8
   120.4     831
   120.5     831
   120.6     834.5
   120.7     844.8
   120.8     859
   120.9     860
   121     858.6
   121.1     865.5
   121.2     851.7
   121.3     856
   121.4     857.2
   121.5     902.8
   121.6     1031.7
   121.7     1373.1
   121.8     1380.7
   121.9     1077.2
   122     952
   122.1     1213.8
   122.2     1684.1
   122.3     1608.3
   122.4     1492
   122.5     1661.4
   122.6     1570.3
   122.7     1297.2
   122.8     1289.7
   122.9     1597
   123     2154.5
   123.1     1850
   123.2     1168.3
   123.3     978.6
   123.4     1056
   123.5     1289.7
   123.6     1282.1
   123.7     1001.4
   123.8     855.2
   123.9     875.9
   124     951.7
   124.1     1227
   124.2     1662.1
   124.3     1503.4
   124.4     1489.7
   124.5     1851
   124.6     1986.2
   124.7     1772.4
   124.8     1475.9
   124.9     1282.8
   125     1413.8
   125.1     1535
   125.2     1406.9
   125.3     1165.5
   125.4     1089.7
   125.5     1089.7
   125.6     1087
   125.7     1154
   125.8     1395
   125.9     1406.9
   126     1183
   126.1     1175.2
   126.2     1429
   126.3     1533.8
   126.4     1434.5
   126.5     1224.8
   126.6     1092.4
   126.7     1147.6
   126.8     1257.9
   126.9     1202.8
   127     1120
   127.1     1056
   127.2     1096.2
   127.3     1248.6
   127.4     1266.2
   127.5     1263
   127.6     1248.6
   127.7     1126
   127.8     1077
   127.9     1150
   128     1166.6
   128.1     1324.8
   128.2     1617.9
   128.3     1629.7
   128.4     1260.3
   128.5     1043.4
   128.6     970
   128.7     1090.3
   128.8     1342.4
   128.9     1565.2
   129     1530
   129.1     1248.6
   129.2     1037.6
   129.3     1002.4
   129.4     1096.2
   129.5     1348.3
   129.6     1406.9
   129.7     1219.3
   129.8     1210
   129.9     1494.8
   130     1479
   130.1     1232
   130.2     1055.2
   130.3     985
   130.4     997
   130.5     1131.4
   130.6     1149
   130.7     1002.4
   130.8     902.8
   130.9     886
   131     925.9
   131.1     1081
   131.2     1337
   131.3     1370.7
   131.4     1412.1
   131.5     1256
   131.6     1016
   131.7     973
   131.8     1081
   131.9     1117.2
   132     1119
   132.1     1086.2
   132.2     945
   132.3     869
   132.4     843.1
   132.5     848.3
   132.6     837.9
   132.7     800.7
   132.8     791.4
   132.9     805.7
   133     790.6
   133.1     794.5
   133.2     791.4
   133.3     813.1
   133.4     797.6
   133.5     809.9
   133.6     820
   133.7     827.6
   133.8     821
   133.9     834.2
   134     837.5
   134.1     831
   134.2     896
   134.3     993
   134.4     1042.8
   134.5     992.1
   134.6     922.4
   134.7     910
   134.8     1079
   134.9     1529
   135     2056.6
   135.1     1811
   135.2     1201
   135.3     955.9
   135.4     919.4
   135.5     1013.8
   135.6     1213
   135.7     1609
   135.8     1661
   135.9     1493
   136     1531
   136.1     1841.4
   136.2     1675
   136.3     1275.9
   136.4     1054
   136.5     1103.4
   136.6     1252
   136.7     1629.3
   136.8     1855.2
   136.9     1627.6
   137     1213.8
   137.1     958.6
   137.2     880.8
   137.3     883
   137.4     992.1
   137.5     1082.8
   137.6     1041.4
   137.7     910.3
   137.8     860
   137.9     832.8
   138     826
   138.1     847.2
   138.2     832.8
   138.3     832.8
   138.4     869
   138.5     859.5
   138.6     865.2
   138.7     896.6
   138.8     977.2
   138.9     1156.6
   139     1179
   139.1     990.7
   139.2     937.4
   139.3     936.4
   139.4     927.9
   139.5     941.4
   139.6     1013.1
   139.7     1093.8
   139.8     1049
   139.9     980
   140     972.8