File: exp_pxrd_data/crystalyze/ZrGe6Ni6/Ge6_Ni6_Zr_raw.xy
   10     272
   10.08     279
   10.16     301
   10.24     322
   10.32     268
   10.4     270
   10.48     284
   10.56     277
   10.64     289
   10.72     294
   10.8     292
   10.88     276
   10.96     297
   11.04     306
   11.12     319
   11.2     286
   11.28     290
   11.36     277
   11.44     256
   11.52     269
   11.6     267
   11.68     261
   11.76     271
   11.84     256
   11.92     266
   12     235
   12.08     270
   12.16     248
   12.24     228
   12.32     228
   12.4     227
   12.48     219
   12.56     244
   12.64     248
   12.72     229
   12.8     247
   12.88     257
   12.96     232
   13.04     230
   13.12     198
   13.2     235
   13.28     220
   13.36     218
   13.44     225
   13.52     251
   13.6     241
   13.68     224
   13.76     229
   13.84     198
   13.92     227
   14     202
   14.08     219
   14.16     178
   14.24     222
   14.32     202
   14.4     214
   14.48     192
   14.56     210
   14.64     170
   14.72     215
   14.8     166
   14.88     170
   14.96     210
   15.04     201
   15.12     183
   15.2     173
   15.28     184
   15.36     214
   15.44     186
   15.52     199
   15.6     182
   15.68     174
   15.76     172
   15.84     142
   15.92     184
   16     181
   16.08     202
   16.16     180
   16.24     179
   16.32     188
   16.4     169
   16.48     146
   16.56     176
   16.64     164
   16.72     164
   16.8     176
   16.88     158
   16.96     184
   17.04     152
   17.12     170
   17.2     167
   17.28     187
   17.36     176
   17.44     174
   17.52     183
   17.6     180
   17.68     175
   17.76     171
   17.84     170
   17.92     197
   18     156
   18.08     188
   18.16     175
   18.24     149
   18.32     155
   18.4     176
   18.48     168
   18.56     158
   18.64     162
   18.72     159
   18.8     162
   18.88     157
   18.96     143
   19.04     159
   19.12     144
   19.2     165
   19.28     153
   19.36     156
   19.44     116
   19.52     155
   19.6     174
   19.68     172
   19.76     179
   19.84     165
   19.92     189
   20     247
   20.08     260
   20.16     368
   20.24     246
   20.32     183
   20.4     154
   20.48     181
   20.56     175
   20.64     197
   20.72     177
   20.8     154
   20.88     171
   20.96     174
   21.04     182
   21.12     159
   21.2     174
   21.28     133
   21.36     152
   21.44     161
   21.52     171
   21.6     141
   21.68     152
   21.76     179
   21.84     148
   21.92     127
   22     160
   22.08     158
   22.16     156
   22.24     195
   22.32     209
   22.4     198
   22.48     181
   22.56     157
   22.64     138
   22.72     150
   22.8     156
   22.88     164
   22.96     195
   23.04     191
   23.12     159
   23.2     188
   23.28     146
   23.36     152
   23.44     146
   23.52     155
   23.6     150
   23.68     151
   23.76     128
   23.84     155
   23.92     151
   24     157
   24.08     145
   24.16     160
   24.24     144
   24.32     154
   24.4     154
   24.48     136
   24.56     158
   24.64     136
   24.72     154
   24.8     151
   24.88     121
   24.96     149
   25.04     147
   25.12     140
   25.2     125
   25.28     140
   25.36     137
   25.44     130
   25.52     138
   25.6     121
   25.68     136
   25.76     120
   25.84     131
   25.92     155
   26     136
   26.08     144
   26.16     144
   26.24     134
   26.32     144
   26.4     143
   26.48     131
   26.56     138
   26.64     138
   26.72     152
   26.8     151
   26.88     121
   26.96     132
   27.04     122
   27.12     153
   27.2     125
   27.28     142
   27.36     124
   27.44     145
   27.52     116
   27.6     118
   27.68     132
   27.76     116
   27.84     150
   27.92     134
   28     130
   28.08     144
   28.16     115
   28.24     140
   28.32     135
   28.4     142
   28.48     147
   28.56     136
   28.64     155
   28.72     141
   28.8     146
   28.88     141
   28.96     143
   29.04     140
   29.12     120
   29.2     129
   29.28     137
   29.36     136
   29.44     118
   29.52     128
   29.6     123
   29.68     121
   29.76     162
   29.84     138
   29.92     147
   30     119
   30.08     137
   30.16     169
   30.24     182
   30.32     163
   30.4     149
   30.48     142
   30.56     148
   30.64     156
   30.72     141
   30.8     137
   30.88     165
   30.96     170
   31.04     136
   31.12     146
   31.2     117
   31.28     116
   31.36     132
   31.44     135
   31.52     137
   31.6     127
   31.68     140
   31.76     130
   31.84     141
   31.92     153
   32     141
   32.08     150
   32.16     140
   32.24     146
   32.32     133
   32.4     134
   32.48     173
   32.56     160
   32.64     147
   32.72     147
   32.8     173
   32.88     140
   32.96     161
   33.04     169
   33.12     163
   33.2     182
   33.28     139
   33.36     179
   33.44     198
   33.52     207
   33.6     282
   33.68     519
   33.76     1150
   33.84     757
   33.92     354
   34     279
   34.08     204
   34.16     187
   34.24     211
   34.32     199
   34.4     199
   34.48     212
   34.56     239
   34.64     255
   34.72     296
   34.8     330
   34.88     431
   34.96     525
   35.04     826
   35.12     1645
   35.2     4106
   35.28     9182
   35.36     5857
   35.44     2239
   35.52     1013
   35.6     720
   35.68     531
   35.76     424
   35.84     310
   35.92     249
   36     220
   36.08     214
   36.16     219
   36.24     198
   36.32     197
   36.4     185
   36.48     175
   36.56     184
   36.64     163
   36.72     167
   36.8     196
   36.88     142
   36.96     156
   37.04     176
   37.12     197
   37.2     206
   37.28     183
   37.36     165
   37.44     169
   37.52     167
   37.6     153
   37.68     147
   37.76     168
   37.84     161
   37.92     169
   38     159
   38.08     187
   38.16     164
   38.24     171
   38.32     176
   38.4     169
   38.48     170
   38.56     170
   38.64     177
   38.72     185
   38.8     200
   38.88     222
   38.96     189
   39.04     229
   39.12     229
   39.2     240
   39.28     318
   39.36     418
   39.44     642
   39.52     1135
   39.6     2635
   39.68     2901
   39.76     2008
   39.84     777
   39.92     437
   40     324
   40.08     325
   40.16     270
   40.24     288
   40.32     307
   40.4     268
   40.48     368
   40.56     369
   40.64     479
   40.72     715
   40.8     1176
   40.88     2696
   40.96     6582
   41.04     4146
   41.12     2308
   41.2     991
   41.28     688
   41.36     550
   41.44     449
   41.52     534
   41.6     519
   41.68     574
   41.76     700
   41.84     779
   41.92     1188
   42     2141
   42.08     5150
   42.16     9766
   42.24     6491
   42.32     3367
   42.4     1487
   42.48     917
   42.56     626
   42.64     466
   42.72     389
   42.8     287
   42.88     275
   42.96     234
   43.04     257
   43.12     223
   43.2     208
   43.28     198
   43.36     193
   43.44     185
   43.52     211
   43.6     192
   43.68     197
   43.76     209
   43.84     187
   43.92     210
   44     208
   44.08     202
   44.16     173
   44.24     229
   44.32     256
   44.4     247
   44.48     320
   44.56     479
   44.64     630
   44.72     787
   44.8     567
   44.88     405
   44.96     260
   45.04     272
   45.12     282
   45.2     299
   45.28     343
   45.36     448
   45.44     713
   45.52     1814
   45.6     2230
   45.68     1563
   45.76     905
   45.84     624
   45.92     506
   46     424
   46.08     374
   46.16     357
   46.24     312
   46.32     314
   46.4     301
   46.48     337
   46.56     400
   46.64     380
   46.72     458
   46.8     530
   46.88     736
   46.96     1262
   47.04     2495
   47.12     6225
   47.2     4895
   47.28     4079
   47.36     1573
   47.44     886
   47.52     564
   47.6     447
   47.68     333
   47.76     308
   47.84     268
   47.92     239
   48     231
   48.08     207
   48.16     176
   48.24     167
   48.32     158
   48.4     197
   48.48     160
   48.56     187
   48.64     167
   48.72     168
   48.8     166
   48.88     175
   48.96     179
   49.04     202
   49.12     201
   49.2     223
   49.28     240
   49.36     296
   49.44     390
   49.52     649
   49.6     1476
   49.68     1448
   49.76     1227
   49.84     661
   49.92     429
   50     420
   50.08     476
   50.16     627
   50.24     1232
   50.32     1700
   50.4     1165
   50.48     841
   50.56     408
   50.64     317
   50.72     228
   50.8     192
   50.88     180
   50.96     166
   51.04     156
   51.12     153
   51.2     172
   51.28     153
   51.36     143
   51.44     125
   51.52     135
   51.6     118
   51.68     129
   51.76     147
   51.84     124
   51.92     114
   52     122
   52.08     111
   52.16     127
   52.24     127
   52.32     143
   52.4     106
   52.48     117
   52.56     120
   52.64     133
   52.72     147
   52.8     121
   52.88     123
   52.96     115
   53.04     137
   53.12     138
   53.2     141
   53.28     130
   53.36     134
   53.44     136
   53.52     140
   53.6     161
   53.68     157
   53.76     191
   53.84     240
   53.92     355
   54     592
   54.08     1362
   54.16     967
   54.24     909
   54.32     444
   54.4     254
   54.48     211
   54.56     180
   54.64     149
   54.72     167
   54.8     163
   54.88     126
   54.96     145
   55.04     134
   55.12     119
   55.2     124
   55.28     129
   55.36     119
   55.44     139
   55.52     150
   55.6     122
   55.68     146
   55.76     124
   55.84     118
   55.92     145
   56     112
   56.08     128
   56.16     134
   56.24     135
   56.32     128
   56.4     129
   56.48     125
   56.56     127
   56.64     149
   56.72     147
   56.8     140
   56.88     102
   56.96     141
   57.04     125
   57.12     125
   57.2     122
   57.28     108
   57.36     124
   57.44     125
   57.52     109
   57.6     121
   57.68     114
   57.76     106
   57.84     127
   57.92     119
   58     122
   58.08     131
   58.16     121
   58.24     104
   58.32     141
   58.4     129
   58.48     134
   58.56     144
   58.64     176
   58.72     198
   58.8     284
   58.88     445
   58.96     431
   59.04     328
   59.12     319
   59.2     182
   59.28     174
   59.36     143
   59.44     131
   59.52     154
   59.6     154
   59.68     158
   59.76     143
   59.84     139
   59.92     117
   60     143
   60.08     92
   60.16     132
   60.24     125
   60.32     136
   60.4     121
   60.48     128
   60.56     111
   60.64     124
   60.72     120
   60.8     119
   60.88     153
   60.96     131
   61.04     142
   61.12     159
   61.2     113
   61.28     113
   61.36     107
   61.44     141
   61.52     130
   61.6     131
   61.68     153
   61.76     129
   61.84     142
   61.92     157
   62     180
   62.08     158
   62.16     161
   62.24     159
   62.32     121
   62.4     151
   62.48     166
   62.56     156
   62.64     168
   62.72     191
   62.8     229
   62.88     397
   62.96     454
   63.04     399
   63.12     444
   63.2     557
   63.28     1224
   63.36     1333
   63.44     809
   63.52     825
   63.6     422
   63.68     258
   63.76     246
   63.84     221
   63.92     168
   64     194
   64.08     171
   64.16     140
   64.24     149
   64.32     156
   64.4     142
   64.48     139
   64.56     147
   64.64     135
   64.72     127
   64.8     131
   64.88     143
   64.96     125
   65.04     129
   65.12     141
   65.2     143
   65.28     125
   65.36     158
   65.44     144
   65.52     156
   65.6     159
   65.68     178
   65.76     190
   65.84     242
   65.92     249
   66     348
   66.08     432
   66.16     634
   66.24     1162
   66.32     873
   66.4     729
   66.48     591
   66.56     364
   66.64     283
   66.72     213
   66.8     208
   66.88     200
   66.96     162
   67.04     177
   67.12     163
   67.2     171
   67.28     190
   67.36     181
   67.44     203
   67.52     204
   67.6     223
   67.68     249
   67.76     331
   67.84     453
   67.92     677
   68     1731
   68.08     1641
   68.16     1010
   68.24     1283
   68.32     599
   68.4     393
   68.48     267
   68.56     237
   68.64     204
   68.72     191
   68.8     192
   68.88     162
   68.96     143
   69.04     139
   69.12     143
   69.2     166
   69.28     150
   69.36     161
   69.44     135
   69.52     138
   69.6     145
   69.68     147
   69.76     124
   69.84     147
   69.92     148
   70     150
   70.08     125
   70.16     116
   70.24     126
   70.32     130
   70.4     109
   70.48     114
   70.56     123
   70.64     130
   70.72     129
   70.8     109
   70.88     125
   70.96     157
   71.04     180
   71.12     174
   71.2     143
   71.28     145
   71.36     134
   71.44     145
   71.52     157
   71.6     113
   71.68     117
   71.76     129
   71.84     108
   71.92     154
   72     136
   72.08     134
   72.16     130
   72.24     115
   72.32     115
   72.4     135
   72.48     111
   72.56     142
   72.64     162
   72.72     143
   72.8     141
   72.88     156
   72.96     159
   73.04     188
   73.12     165
   73.2     173
   73.28     204
   73.36     195
   73.44     243
   73.52     281
   73.6     319
   73.68     436
   73.76     509
   73.84     425
   73.92     494
   74     457
   74.08     529
   74.16     691
   74.24     1022
   74.32     841
   74.4     948
   74.48     1149
   74.56     1801
   74.64     2076
   74.72     1479
   74.8     1400
   74.88     1164
   74.96     725
   75.04     478
   75.12     353
   75.2     290
   75.28     249
   75.36     212
   75.44     210
   75.52     213
   75.6     196
   75.68     201
   75.76     175
   75.84     174
   75.92     155
   76     152
   76.08     166
   76.16     159
   76.24     158
   76.32     110
   76.4     138
   76.48     131
   76.56     147
   76.64     109
   76.72     137
   76.8     129
   76.88     130
   76.96     124
   77.04     130
   77.12     134
   77.2     150
   77.28     143
   77.36     130
   77.44     125
   77.52     130
   77.6     114
   77.68     147
   77.76     95
   77.84     124
   77.92     102
   78     131
   78.08     118
   78.16     128
   78.24     129
   78.32     132
   78.4     119
   78.48     127
   78.56     139
   78.64     132
   78.72     135
   78.8     127
   78.88     137
   78.96     131
   79.04     148
   79.12     131
   79.2     140
   79.28     140
   79.36     147
   79.44     129
   79.52     130
   79.6     118
   79.68     142
   79.76     132
   79.84     128
   79.92     148
   80     151
   80.08     138
   80.16     100
   80.24     128
   80.32     148
   80.4     129
   80.48     144
   80.56     136
   80.64     164
   80.72     147
   80.8     160
   80.88     179
   80.96     180
   81.04     164
   81.12     200
   81.2     243
   81.28     231
   81.36     311
   81.44     346
   81.52     369
   81.6     396
   81.68     542
   81.76     763
   81.84     1177
   81.92     1142
   82     836
   82.08     840
   82.16     750
   82.24     469
   82.32     369
   82.4     288
   82.48     228
   82.56     214
   82.64     200
   82.72     180
   82.8     196
   82.88     158
   82.96     159
   83.04     165
   83.12     161
   83.2     135
   83.28     155
   83.36     125
   83.44     147
   83.52     138
   83.6     157
   83.68     148
   83.76     195
   83.84     147
   83.92     161
   84     200
   84.08     210
   84.16     227
   84.24     229
   84.32     244
   84.4     284
   84.48     301
   84.56     250
   84.64     213
   84.72     234
   84.8     217
   84.88     181
   84.96     202
   85.04     176
   85.12     169
   85.2     157
   85.28     198
   85.36     263
   85.44     249
   85.52     231
   85.6     202
   85.68     199
   85.76     194
   85.84     174
   85.92     138
   86     129
   86.08     139
   86.16     125
   86.24     162
   86.32     128
   86.4     109
   86.48     122
   86.56     134
   86.64     133
   86.72     133
   86.8     113
   86.88     149
   86.96     144
   87.04     163
   87.12     128
   87.2     145
   87.28     146
   87.36     155
   87.44     142
   87.52     167
   87.6     176
   87.68     183
   87.76     214
   87.84     251
   87.92     366
   88     430
   88.08     338
   88.16     297
   88.24     330
   88.32     245
   88.4     236
   88.48     193
   88.56     197
   88.64     211
   88.72     279
   88.8     425
   88.88     331
   88.96     265
   89.04     242
   89.12     266
   89.2     205
   89.28     173
   89.36     172
   89.44     161
   89.52     153
   89.6     139
   89.68     149
   89.76     120
   89.84     150
   89.92     125
   90     154
   90.08     120
   90.16     123
   90.24     128
   90.32     142
   90.4     134
   90.48     143
   90.56     140
   90.64     156
   90.72     136
   90.8     142
   90.88     144
   90.96     159
   91.04     155
   91.12     155
   91.2     161
   91.28     185
   91.36     180
   91.44     196
   91.52     200
   91.6     235
   91.68     277
   91.76     367
   91.84     457
   91.92     679
   92     910
   92.08     628
   92.16     577
   92.24     595
   92.32     540
   92.4     420
   92.48     316
   92.56     254
   92.64     237
   92.72     267
   92.8     254
   92.88     277
   92.96     323
   93.04     429
   93.12     566
   93.2     479
   93.28     365
   93.36     369
   93.44     338
   93.52     314
   93.6     247
   93.68     201
   93.76     196
   93.84     167
   93.92     159
   94     167
   94.08     162
   94.16     124
   94.24     157
   94.32     149
   94.4     164
   94.48     132
   94.56     162
   94.64     120
   94.72     134
   94.8     158
   94.88     151
   94.96     139
   95.04     152
   95.12     163
   95.2     165
   95.28     209
   95.36     247
   95.44     300
   95.52     344
   95.6     339
   95.68     300
   95.76     318
   95.84     325
   95.92     359
   96     281
   96.08     232
   96.16     218
   96.24     233
   96.32     198
   96.4     159
   96.48     163
   96.56     156
   96.64     134
   96.72     135
   96.8     139
   96.88     144
   96.96     132
   97.04     133
   97.12     133
   97.2     122
   97.28     133
   97.36     127
   97.44     109
   97.52     151
   97.6     118
   97.68     136
   97.76     142
   97.84     144
   97.92     152
   98     106
   98.08     149
   98.16     150
   98.24     153
   98.32     168
   98.4     192
   98.48     224
   98.56     241
   98.64     188
   98.72     167
   98.8     168
   98.88     202
   98.96     182
   99.04     126
   99.12     128
   99.2     139
   99.28     100
   99.36     125
   99.44     136
   99.52     141
   99.6     145
   99.68     125
   99.76     129
   99.84     122
   99.92     147
   100     110