File: exp_pxrd_data/crystalyze/KBi3/K_Bi_O_postheat_054.xy
0.0101868  -1.00009
0.050934  -0.695223
0.0916811  0.714738
0.132428  1.57396
0.173175  1.68241
0.213923  2.14027
0.25467  2.06658
0.295417  2.9803
0.336164  3.49341
0.376911  3.7902
0.417658  3.84282
0.458406  4.39435
0.499153  4.62951
0.5399  4.68474
0.580647  4.60437
0.621394  4.83279
0.662141  5.18983
0.702889  5.05061
0.743636  5.07466
0.784383  4.98057
0.82513  5.13628
0.865877  5.49645
0.906624  5.68719
0.947372  5.77865
0.988119  6.15619
1.02887  6.70619
1.06961  7.96131
1.11036  13.2034
1.15111  19.0863
1.19185  24.4453
1.2326  32.0744
1.27335  41.0397
1.3141  53.3162
1.35484  68.7792
1.39559  90.3895
1.43634  119.743
1.47708  140
1.51783  152.465
1.55858  165.231
1.59933  178.284
1.64007  189.303
1.68082  198.18
1.72157  208.52
1.76231  218.262
1.80306  228.147
1.84381  238.247
1.88456  248.157
1.9253  254.574
1.96605  262.582
2.0068  266.919
2.04755  272.716
2.08829  278.768
2.12904  284.004
2.16979  288.633
2.21053  295.202
2.25128  299.446
2.29203  302.301
2.33278  307.234
2.37352  309.972
2.41427  314.312
2.45502  318.099
2.49576  321.407
2.53651  325.329
2.57726  328.377
2.61801  329.689
2.65875  330.572
2.6995  334.041
2.74025  336.975
2.78099  340.241
2.82174  341.036
2.86249  342.709
2.90324  345.18
2.94398  345.455
2.98473  348.09
3.02548  348.727
3.06622  349.439
3.10697  352.262
3.14772  353.068
3.18847  353.867
3.22921  353.984
3.26996  352.703
3.31071  353.582
3.35145  353.554
3.3922  355.637
3.43295  357.362
3.4737  358.338
3.51444  358.163
3.55519  357.595
3.59594  357.855
3.63668  358.854
3.67743  359.366
3.71818  361.09
3.75893  360.757
3.79967  360.503
3.84042  361.403
3.88117  361.516
3.92191  361.976
3.96266  363.248
4.00341  363.496
4.04416  363.065
4.0849  364.284
4.12565  365.982
4.1664  367.03
4.20714  371.237
4.24789  372.82
4.28864  371.156
4.32939  371.549
4.37013  361.483
4.41088  352.13
4.45163  346.7
4.49237  343.505
4.53312  344.908
4.57387  348.527
4.61462  353.798
4.65536  357.53
4.69611  362.989
4.73686  369.358
4.77761  371.548
4.81835  435.777
4.8591  847.809
4.89985  1032.81
4.94059  522.967
4.98134  320.895
5.02209  291.991
5.06284  281.451
5.10358  273.406
5.14433  269.067
5.18508  277.749
5.22582  280.172
5.26657  280.858
5.30732  280.403
5.34807  280.888
5.38881  279.919
5.42956  279.972
5.47031  279.926
5.51105  280.271
5.5518  279.872
5.59255  278.849
5.6333  277.714
5.67404  283.245
5.71479  293.821
5.75554  299.848
5.79628  303.301
5.83703  306.269
5.87778  308.594
5.91853  311.832
5.95927  314.102
6.00002  316.831
6.04077  319.285
6.08151  321.278
6.12226  323.05
6.16301  327.008
6.20376  328.927
6.2445  330.656
6.28525  332.879
6.326  334.203
6.36674  336.736
6.40749  338.432
6.44824  340.188
6.48899  342.704
6.52973  344.977
6.57048  347.633
6.61123  349.869
6.65197  353.125
6.69272  356.039
6.73347  361.089
6.77422  366.704
6.81496  381.491
6.85571  487.058
6.89646  1000.41
6.9372  1066.12
6.97795  558.404
7.0187  417.512
7.05945  398.343
7.10019  391.679
7.14094  388.11
7.18169  386.175
7.22244  386.704
7.26318  389.152
7.30393  395.089
7.34468  398.418
7.38542  394.414
7.42617  392.695
7.46692  392.646
7.50767  393.486
7.54841  396.182
7.58916  399.115
7.62991  402.199
7.67065  404.911
7.7114  405.611
7.75215  407.81
7.7929  410.912
7.83364  412.739
7.87439  416.268
7.91514  420.284
7.95588  421.272
7.99663  424.279
8.03738  429.252
8.07813  433.248
8.11887  438.878
8.15962  446.258
8.20037  455.7
8.24111  467.876
8.28186  485.114
8.32261  515.866
8.36336  590.745
8.4041  980.63
8.44485  3517.36
8.4856  5510.03
8.52634  2559.3
8.56709  838.789
8.60784  736.389
8.64859  2046.29
8.68933  4137.11
8.73008  2478.59
8.77083  749.58
8.81157  537.308
8.85232  507.262
8.89307  493.761
8.93382  486.139
8.97456  482.799
9.01531  480.495
9.05606  476.122
9.0968  475.395
9.13755  476.113
9.1783  480.136
9.21905  484.172
9.25979  485.435
9.30054  486.799
9.34129  491.315
9.38203  497.02
9.42278  504.975
9.46353  514.142
9.50428  522.107
9.54502  525.673
9.58577  531.391
9.62652  548.707
9.66726  598.949
9.70801  845.379
9.74876  1811.93
9.78951  2921.57
9.83025  2007.07
9.871  910.628
9.91175  641.721
9.9525  575.514
9.99324  546.217
10.034  531.095
10.0747  524.478
10.1155  523.189
10.1562  524.78
10.197  524.744
10.2377  519.07
10.2785  513.05
10.3192  511.96
10.36  511.797
10.4007  511.984
10.4415  511.47
10.4822  512.066
10.523  513.317
10.5637  514.86
10.6044  517.406
10.6452  520.817
10.6859  524.936
10.7267  531.758
10.7674  540.099
10.8082  549.843
10.8489  573.049
10.8897  676.935
10.9304  937.999
10.9712  955.257
11.0119  728.346
11.0527  660.089
11.0934  712.196
11.1342  964.143
11.1749  2437.73
11.2157  7176.36
11.2564  8374.63
11.2972  3312.96
11.3379  1084.98
11.3786  728.94
11.4194  636.964
11.4601  601.861
11.5009  585.517
11.5416  575.463
11.5824  569.809
11.6231  569.033
11.6639  570.926
11.7046  571.775
11.7454  572.333
11.7861  574.423
11.8269  576.035
11.8676  579.759
11.9084  596.424
11.9491  696.731
11.9899  888.956
12.0306  826.69
12.0713  639.463
12.1121  586.878
12.1528  581.045
12.1936  594.854
12.2343  694.779
12.2751  971.363
12.3158  1019.66
12.3566  746.8
12.3973  607.646
12.4381  583.55
12.4788  578.674
12.5196  577.958
12.5603  577.271
12.6011  578.71
12.6418  579.271
12.6826  579.956
12.7233  582.21
12.764  582.48
12.8048  583.016
12.8455  583.618
12.8863  584.822
12.927  584.622
12.9678  585.774
13.0085  588.711
13.0493  591.05
13.09  592.518
13.1308  592.958
13.1715  595.365
13.2123  596.884
13.253  600.165
13.2938  602.138
13.3345  604.435
13.3753  606.108
13.416  610.211
13.4568  613.066
13.4975  616.938
13.5382  621.994
13.579  629.114
13.6197  639.198
13.6605  657.121
13.7012  684.61
13.742  731.091
13.7827  924.604
13.8235  1658.46
13.8642  2436.76
13.905  1783.04
13.9457  943.738
13.9865  730.479
14.0272  684.865
14.068  668.876
14.1087  661.936
14.1495  642.253
14.1902  629.29
14.2309  620.848
14.2717  614.98
14.3124  609.573
14.3532  606.008
14.3939  602.853
14.4347  601.471
14.4754  600.502
14.5162  600.412
14.5569  604
14.5977  598.515
14.6384  624.963
14.6792  719.159
14.7199  766.623
14.7607  659.667
14.8014  583.059
14.8422  562.17
14.8829  559.464
14.9236  574.685
14.9644  588.315
15.0051  663.794
15.0459  1100.17
15.0866  1587.65
15.1274  1117.09
15.1681  682.201
15.2089  597.213
15.2496  582.872
15.2904  579.271
15.3311  589.173
15.3719  602.349
15.4126  618.532
15.4534  671.158
15.4941  739.842
15.5349  733.387
15.5756  665.196
15.6164  641.976
15.6571  638.444
15.6978  644.086
15.7386  655.799
15.7793  682.457
15.8201  759.127
15.8608  1000.57
15.9016  1507.27
15.9423  1786.52
15.9831  1352.56
16.0238  888.56
16.0646  746.459
16.1053  731.832
16.1461  780.297
16.1868  1013.98
16.2276  1681.68
16.2683  2383.13
16.3091  1897.72
16.3498  1115.91
16.3905  834.084
16.4313  750.575
16.472  716.55
16.5128  697.965
16.5535  686.578
16.5943  678.651
16.635  673.711
16.6758  671.417
16.7165  670.677
16.7573  671.005
16.798  673.024
16.8388  677.895
16.8795  691.449
16.9203  752.208
16.961  987.678
17.0018  1274.75
17.0425  1080.51
17.0832  774.999
17.124  701.183
17.1647  682.947
17.2055  675.606
17.2462  672.689
17.287  672.985
17.3277  681.06
17.3685  746.467
17.4092  883.951
17.45  934.021
17.4907  784.535
17.5315  690.126
17.5722  673.914
17.613  680.978
17.6537  716.419
17.6945  759.464
17.7352  730.476
17.776  682.892
17.8167  665.09
17.8574  658.906
17.8982  655.804
17.9389  654.265
17.9797  653.347
18.0204  652.543
18.0612  651.636
18.1019  650.389
18.1427  650.339
18.1834  650.569
18.2242  652.679
18.2649  659.945
18.3057  689.364
18.3464  749.679
18.3872  763.469
18.4279  705.489
18.4687  668.678
18.5094  656.983
18.5501  652.209
18.5909  650.197
18.6316  655.424
18.6724  669.299
18.7131  678.956
18.7539  667.079
18.7946  649.877
18.8354  641.238
18.8761  638.167
18.9169  637.015
18.9576  636.57
18.9984  635.096
19.0391  633.976
19.0799  634.417
19.1206  632.637
19.1614  632.961
19.2021  632.171
19.2428  630.833
19.2836  631.853
19.3243  631.639
19.3651  634.981
19.4058  647.966
19.4466  697.314
19.4873  784.379
19.5281  802.556
19.5688  736.22
19.6096  709.357
19.6503  720.784
19.6911  697.161
19.7318  655.389
19.7726  634.098
19.8133  626.425
19.8541  623.412
19.8948  620.913
19.9356  619.441
19.9763  617.966
20.017  616.352
20.0578  615.974
20.0985  616.218
20.1393  617.001
20.18  621.366
20.2208  638.055
20.2615  654.637
20.3023  639.133
20.343  619.476
20.3838  611.084
20.4245  606.961
20.4653  605.401
20.506  603.51
20.5468  602.322
20.5875  601.791
20.6283  599.931
20.669  599.887
20.7097  599.984
20.7505  601.121
20.7912  607.261
20.832  616.76
20.8727  617.284
20.9135  605.799
20.9542  597.81
20.995  594.972
21.0357  592.861
21.0765  591.973
21.1172  591.261
21.158  591.061
21.1987  590.232
21.2395  590.759
21.2802  592.106
21.321  598.901
21.3617  631.546
21.4024  688.874
21.4432  691.048
21.4839  635.116
21.5247  596.445
21.5654  583.084
21.6062  577.377
21.6469  575.154
21.6877  573.001
21.7284  571.753
21.7692  570.307
21.8099  568.579
21.8507  567.652
21.8914  568.509
21.9322  573.531
21.9729  583.74
22.0137  583.733
22.0544  568.467
22.0952  561.574
22.1359  560.961
22.1766  559.17
22.2174  557.832
22.2581  554.864
22.2989  554.167
22.3396  552.591
22.3804  552.235
22.4211  552.578
22.4619  553.9
22.5026  553.888
22.5434  554.257
22.5841  554.555
22.6249  555.567
22.6656  556.048
22.7064  556.957
22.7471  556.329
22.7879  555.724
22.8286  555.143
22.8693  555.176
22.9101  553.526
22.9508  551.655
22.9916  552.056
23.0323  551.676
23.0731  550.823
23.1138  550.696
23.1546  552.384
23.1953  548.691
23.2361  546.332
23.2768  544.594
23.3176  544.682
23.3583  543.583
23.3991  542.98
23.4398  544.423
23.4806  544.958
23.5213  544.191
23.562  543.909
23.6028  542.837
23.6435  542.057
23.6843  541.156
23.725  540.051
23.7658  539.177
23.8065  537.795
23.8473  536.505
23.888  536.431
23.9288  534.944
23.9695  534.166
24.0103  533.458
24.051  532.136
24.0918  531.351
24.1325  530.382
24.1733  529.255
24.214  528.398
24.2548  528.234
24.2955  527.852
24.3362  525.828
24.377  525.67
24.4177  524.889
24.4585  523.652
24.4992  523.944
24.54  521.845
24.5807  520.844
24.6215  519.891
24.6622  519.479
24.703  518.436
24.7437  517.788
24.7845  517.103
24.8252  515.339
24.866  515.24
24.9067  513.48
24.9475  512.712
24.9882  512.261
25.0289  511.331
25.0697  511.18
25.1104  510.635
25.1512  509.499
25.1919  507.542
25.2327  507.194
25.2734  506.87
25.3142  507.058
25.3549  504.902
25.3957  505.144
25.4364  503.207
25.4772  502.758
25.5179  504.081
25.5587  504.346
25.5994  503.097
25.6402  505.319
25.6809  506.788
25.7216  508.141
25.7624  510.057
25.8031  513.944
25.8439  515.92
25.8846  518.78
25.9254  520.887
25.9661  521.671
26.0069  522.579
26.0476  523.298
26.0884  521.908
26.1291  522.941
26.1699  523.658
26.2106  522.555
26.2514  522.426
26.2921  522.227
26.3329  522.432
26.3736  521.308
26.4143  521.163
26.4551  520.682
26.4958  520.249
26.5366  518.469
26.5773  518.37
26.6181  518.478
26.6588  518.641
26.6996  517.677
26.7403  516.435
26.7811  518.051
26.8218  517.373
26.8626  515.772
26.9033  515.672
26.9441  513.789
26.9848  515.655
27.0256  515.235
27.0663  515.394
27.1071  514.683
27.1478  512.481
27.1885  511.977
27.2293  512.529
27.27  512.4
27.3108  511.857
27.3515  512.071
27.3923  511.82
27.433  510.117
27.4738  510.127
27.5145  510.183
27.5553  509.607
27.596  509.176
27.6368  507.64
27.6775  509.266
27.7183  508.216
27.759  507.861
27.7998  505.901
27.8405  506.768
27.8812  505.742
27.922  506.583
27.9627  504.497
28.0035  504.487
28.0442  506.477
28.085  505.795
28.1257  504.496
28.1665  504.288
28.2072  502.904
28.248  504.671
28.2887  502.285
28.3295  501.602
28.3702  503.362
28.411  499.887
28.4517  500.206
28.4925  502.092
28.5332  499.593
28.5739  499.039
28.6147  500.967
28.6554  498.144
28.6962  497.681
28.7369  497.524
28.7777  497.381
28.8184  496.181
28.8592  496.838
28.8999  496.321
28.9407  497.147
28.9814  496.33
29.0222  495.496
29.0629  495.399
29.1037  495.324
29.1444  493.949
29.1852  493.866
29.2259  493.245
29.2667  493.894
29.3074  493.586
29.3481  492.333
29.3889  492.745
29.4296  491.281
29.4704  491.613
29.5111  491.809
29.5519  490.169
29.5926  492.475
29.6334  494.235
29.6741  490.925
29.7149  489.037
29.7556  492.975
29.7964  492.206
29.8371  492.09
29.8779  488.407
29.9186  489.863
29.9594  490.643
30.0001  490.79
30.0408  488.282
30.0816  480.165
30.1223  482.035
30.1631  496.2
30.2038  494.815
30.2446  497.983
30.2853  496.947
30.3261  497.917
30.3668  501.614
30.4076  507.596
30.4483  505.091
30.4891  511.093
30.5298  531.911
30.5706  538.101
30.6113  522.713
30.6521  548.831
30.6928  491.622
30.7132  426.714