File: exp_pxrd_data/crystalyze/HoNdV2O8/Ho_Nd_V2_O8_raw.xy
   10.003     463
   10.083     478
   10.163     412
   10.243     412
   10.323     505
   10.403     448
   10.483     441
   10.563     500
   10.643     460
   10.723     464
   10.803     491
   10.883     467
   10.963     454
   11.043     432
   11.123     456
   11.203     470
   11.283     432
   11.363     504
   11.443     495
   11.523     510
   11.603     433
   11.683     459
   11.763     445
   11.843     459
   11.923     432
   12.003     413
   12.083     405
   12.163     482
   12.243     427
   12.323     477
   12.403     413
   12.483     518
   12.563     505
   12.643     481
   12.723     421
   12.803     448
   12.883     495
   12.963     445
   13.043     450
   13.123     455
   13.203     492
   13.283     462
   13.363     437
   13.443     391
   13.523     431
   13.603     498
   13.683     446
   13.763     479
   13.843     486
   13.923     447
   14.003     476
   14.083     439
   14.163     426
   14.243     406
   14.323     559
   14.403     453
   14.483     425
   14.563     463
   14.643     417
   14.723     466
   14.803     493
   14.883     425
   14.963     474
   15.043     468
   15.123     450
   15.203     434
   15.283     442
   15.363     497
   15.443     459
   15.523     485
   15.603     438
   15.683     492
   15.763     458
   15.843     444
   15.923     482
   16.003     449
   16.083     436
   16.163     477
   16.243     505
   16.323     395
   16.403     495
   16.483     530
   16.563     442
   16.643     480
   16.723     483
   16.803     452
   16.883     462
   16.963     421
   17.043     450
   17.123     417
   17.203     467
   17.283     502
   17.363     460
   17.443     485
   17.523     459
   17.603     449
   17.683     447
   17.763     421
   17.843     464
   17.923     452
   18.003     450
   18.083     469
   18.163     453
   18.243     481
   18.323     552
   18.403     965
   18.483     1838
   18.563     5164
   18.643     911
   18.723     461
   18.803     466
   18.883     512
   18.963     497
   19.043     447
   19.123     532
   19.203     491
   19.283     472
   19.363     439
   19.443     513
   19.523     446
   19.603     467
   19.683     433
   19.763     442
   19.843     467
   19.923     495
   20.003     467
   20.083     557
   20.163     464
   20.243     468
   20.323     460
   20.403     499
   20.483     508
   20.563     491
   20.643     489
   20.723     481
   20.803     494
   20.883     489
   20.963     500
   21.043     551
   21.123     456
   21.203     439
   21.283     446
   21.363     477
   21.443     550
   21.523     476
   21.603     524
   21.683     491
   21.763     447
   21.843     453
   21.923     499
   22.003     467
   22.083     465
   22.163     466
   22.243     474
   22.323     462
   22.403     503
   22.483     498
   22.563     593
   22.643     513
   22.723     524
   22.803     496
   22.883     510
   22.963     513
   23.043     482
   23.123     479
   23.203     498
   23.283     494
   23.363     471
   23.443     515
   23.523     545
   23.603     478
   23.683     453
   23.763     506
   23.843     484
   23.923     489
   24.003     470
   24.083     491
   24.163     507
   24.243     535
   24.323     787
   24.403     1418
   24.483     3143
   24.563     8319
   24.643     26617
   24.723     1933
   24.803     697
   24.883     504
   24.963     465
   25.043     554
   25.123     450
   25.203     444
   25.283     535
   25.363     504
   25.443     449
   25.523     510
   25.603     460
   25.683     496
   25.763     514
   25.843     464
   25.923     441
   26.003     487
   26.083     473
   26.163     464
   26.243     525
   26.323     481
   26.403     466
   26.483     487
   26.563     479
   26.643     502
   26.723     538
   26.803     581
   26.883     543
   26.963     516
   27.043     511
   27.123     442
   27.203     512
   27.283     476
   27.363     557
   27.443     435
   27.523     487
   27.603     544
   27.683     549
   27.763     519
   27.843     494
   27.923     532
   28.003     574
   28.083     505
   28.163     491
   28.243     480
   28.323     484
   28.403     483
   28.483     538
   28.563     459
   28.643     460
   28.723     514
   28.803     510
   28.883     499
   28.963     485
   29.043     494
   29.123     516
   29.203     462
   29.283     458
   29.363     490
   29.443     480
   29.523     518
   29.603     470
   29.683     506
   29.763     438
   29.843     507
   29.923     469
   30.003     430
   30.083     482
   30.163     493
   30.243     435
   30.323     493
   30.403     447
   30.483     503
   30.563     490
   30.643     461
   30.723     511
   30.803     500
   30.883     645
   30.963     1179
   31.043     2060
   31.123     650
   31.203     465
   31.283     507
   31.363     469
   31.443     426
   31.523     506
   31.603     464
   31.683     479
   31.763     515
   31.843     445
   31.923     464
   32.003     465
   32.083     477
   32.163     510
   32.243     436
   32.323     520
   32.403     437
   32.483     506
   32.563     463
   32.643     480
   32.723     481
   32.803     508
   32.883     654
   32.963     1104
   33.043     2929
   33.123     10107
   33.203     4728
   33.283     1151
   33.363     471
   33.443     456
   33.523     477
   33.603     466
   33.683     475
   33.763     452
   33.843     474
   33.923     466
   34.003     471
   34.083     429
   34.163     462
   34.243     397
   34.323     456
   34.403     499
   34.483     451
   34.563     523
   34.643     426
   34.723     528
   34.803     491
   34.883     643
   34.963     937
   35.043     2052
   35.123     5222
   35.203     872
   35.283     610
   35.363     521
   35.443     458
   35.523     480
   35.603     523
   35.683     470
   35.763     442
   35.843     503
   35.923     449
   36.003     400
   36.083     511
   36.163     430
   36.243     465
   36.323     453
   36.403     445
   36.483     519
   36.563     473
   36.643     439
   36.723     448
   36.803     462
   36.883     479
   36.963     475
   37.043     422
   37.123     477
   37.203     458
   37.283     484
   37.363     457
   37.443     476
   37.523     498
   37.603     902
   37.683     1402
   37.763     515
   37.843     497
   37.923     491
   38.003     431
   38.083     491
   38.163     430
   38.243     439
   38.323     479
   38.403     464
   38.483     444
   38.563     456
   38.643     461
   38.723     469
   38.803     464
   38.883     484
   38.963     500
   39.043     513
   39.123     499
   39.203     480
   39.283     505
   39.363     466
   39.443     479
   39.523     425
   39.603     498
   39.683     474
   39.763     552
   39.843     679
   39.923     1232
   40.003     5307
   40.083     991
   40.163     643
   40.243     491
   40.323     527
   40.403     482
   40.483     500
   40.563     491
   40.643     527
   40.723     515
   40.803     508
   40.883     459
   40.963     501
   41.043     512
   41.123     456
   41.203     444
   41.283     474
   41.363     476
   41.443     446
   41.523     472
   41.603     482
   41.683     453
   41.763     448
   41.843     428
   41.923     504
   42.003     456
   42.083     469
   42.163     414
   42.243     415
   42.323     506
   42.403     479
   42.483     479
   42.563     464
   42.643     450
   42.723     488
   42.803     435
   42.883     421
   42.963     446
   43.043     460
   43.123     420
   43.203     472
   43.283     431
   43.363     477
   43.443     489
   43.523     476
   43.603     466
   43.683     447
   43.763     475
   43.843     517
   43.923     485
   44.003     505
   44.083     535
   44.163     514
   44.243     488
   44.323     557
   44.403     764
   44.483     2705
   44.563     887
   44.643     602
   44.723     501
   44.803     524
   44.883     529
   44.963     540
   45.043     493
   45.123     496
   45.203     430
   45.283     487
   45.363     501
   45.443     478
   45.523     504
   45.603     480
   45.683     467
   45.763     457
   45.843     448
   45.923     452
   46.003     470
   46.083     488
   46.163     481
   46.243     444
   46.323     442
   46.403     461
   46.483     486
   46.563     423
   46.643     444
   46.723     459
   46.803     457
   46.883     495
   46.963     477
   47.043     485
   47.123     501
   47.203     509
   47.283     533
   47.363     635
   47.443     949
   47.523     3034
   47.603     1556
   47.683     753
   47.763     584
   47.843     538
   47.923     483
   48.003     522
   48.083     515
   48.163     509
   48.243     484
   48.323     492
   48.403     543
   48.483     517
   48.563     509
   48.643     630
   48.723     655
   48.803     769
   48.883     1052
   48.963     2778
   49.043     13497
   49.123     4457
   49.203     1511
   49.283     937
   49.363     563
   49.443     501
   49.523     482
   49.603     463
   49.683     494
   49.763     516
   49.843     471
   49.923     469
   50.003     534
   50.083     529
   50.163     541
   50.243     619
   50.323     634
   50.403     1101
   50.483     5571
   50.563     1301
   50.643     734
   50.723     603
   50.803     487
   50.883     508
   50.963     486
   51.043     555
   51.123     500
   51.203     535
   51.283     504
   51.363     523
   51.443     694
   51.523     1626
   51.603     613
   51.683     614
   51.763     473
   51.843     466
   51.923     476
   52.003     485
   52.083     501
   52.163     492
   52.243     450
   52.323     454
   52.403     512
   52.483     496
   52.563     526
   52.643     469
   52.723     457
   52.803     471
   52.883     518
   52.963     495
   53.043     439
   53.123     473
   53.203     447
   53.283     469
   53.363     499
   53.443     465
   53.523     478
   53.603     470
   53.683     459
   53.763     456
   53.843     526
   53.923     493
   54.003     473
   54.083     486
   54.163     607
   54.243     1061
   54.323     655
   54.403     595
   54.483     497
   54.563     458
   54.643     492
   54.723     493
   54.803     455
   54.883     435
   54.963     512
   55.043     504
   55.123     446
   55.203     483
   55.283     478
   55.363     487
   55.443     519
   55.523     474
   55.603     493
   55.683     472
   55.763     470
   55.843     503
   55.923     464
   56.003     463
   56.083     463
   56.163     497
   56.243     474
   56.323     468
   56.403     467
   56.483     451
   56.563     463
   56.643     493
   56.723     497
   56.803     577
   56.883     1263
   56.963     3955
   57.043     1151
   57.123     551
   57.203     497
   57.283     468
   57.363     423
   57.443     473
   57.523     495
   57.603     456
   57.683     434
   57.763     509
   57.843     611
   57.923     1268
   58.003     684
   58.083     550
   58.163     492
   58.243     436
   58.323     433
   58.403     446
   58.483     460
   58.563     472
   58.643     523
   58.723     483
   58.803     426
   58.883     504
   58.963     467
   59.043     426
   59.123     455
   59.203     460
   59.283     458
   59.363     451
   59.443     449
   59.523     437
   59.603     436
   59.683     456
   59.763     459
   59.843     446
   59.923     453
   60.003     423
   60.083     467
   60.163     474
   60.243     417
   60.323     448
   60.403     503
   60.483     446
   60.563     442
   60.643     497
   60.723     462
   60.803     407
   60.883     483
   60.963     501
   61.043     430
   61.123     437
   61.203     494
   61.283     490
   61.363     500
   61.443     550
   61.523     542
   61.603     799
   61.683     1809
   61.763     3944
   61.843     1154
   61.923     718
   62.003     633
   62.083     509
   62.163     479
   62.243     463
   62.323     480
   62.403     527
   62.483     479
   62.563     460
   62.643     450
   62.723     489
   62.803     425
   62.883     462
   62.963     497
   63.043     471
   63.123     458
   63.203     484
   63.283     473
   63.363     464
   63.443     499
   63.523     479
   63.603     471
   63.683     547
   63.763     606
   63.843     1289
   63.923     3555
   64.003     915
   64.083     623
   64.163     553
   64.243     509
   64.323     474
   64.403     496
   64.483     466
   64.563     506
   64.643     484
   64.723     516
   64.803     479
   64.883     533
   64.963     454
   65.043     470
   65.123     459
   65.203     496
   65.283     508
   65.363     470
   65.443     510
   65.523     510
   65.603     400
   65.683     481
   65.763     440
   65.843     472
   65.923     529
   66.003     495
   66.083     468
   66.163     635
   66.243     1003
   66.323     1235
   66.403     665
   66.483     530
   66.563     436
   66.643     507
   66.723     434
   66.803     467
   66.883     489
   66.963     446
   67.043     471
   67.123     461
   67.203     488
   67.283     511
   67.363     521
   67.443     442
   67.523     491
   67.603     447
   67.683     427
   67.763     449
   67.843     447
   67.923     450
   68.003     467
   68.083     480
   68.163     477
   68.243     413
   68.323     455
   68.403     451
   68.483     451
   68.563     424
   68.643     423
   68.723     470
   68.803     449
   68.883     490
   68.963     454
   69.043     520
   69.123     501
   69.203     516
   69.283     526
   69.363     568
   69.443     665
   69.523     1493
   69.603     3173
   69.683     861
   69.763     643
   69.843     532
   69.923     507
   70.003     478
   70.083     476
   70.163     490
   70.243     464
   70.323     485
   70.403     483
   70.483     461
   70.563     457
   70.643     484
   70.723     457
   70.803     451
   70.883     434
   70.963     443
   71.043     432
   71.123     424
   71.203     464
   71.283     480
   71.363     463
   71.443     451
   71.523     434
   71.603     448
   71.683     470
   71.763     491
   71.843     552
   71.923     500
   72.003     466
   72.083     501
   72.163     450
   72.243     516
   72.323     527
   72.403     464
   72.483     491
   72.563     436
   72.643     478
   72.723     455
   72.803     533
   72.883     593
   72.963     890
   73.043     3073
   73.123     1484
   73.203     753
   73.283     666
   73.363     527
   73.443     481
   73.523     484
   73.603     449
   73.683     420
   73.763     475
   73.843     509
   73.923     447
   74.003     508
   74.083     611
   74.163     878
   74.243     898
   74.323     532
   74.403     480
   74.483     528
   74.563     495
   74.643     529
   74.723     484
   74.803     481
   74.883     400
   74.963     523
   75.043     496
   75.123     492
   75.203     474
   75.283     526
   75.363     491
   75.443     485
   75.523     480
   75.603     472
   75.683     480
   75.763     476
   75.843     514
   75.923     515
   76.003     521
   76.083     468
   76.163     499
   76.243     481
   76.323     450
   76.403     436
   76.483     491
   76.563     466
   76.643     452
   76.723     450
   76.803     478
   76.883     468
   76.963     519
   77.043     508
   77.123     443
   77.203     458
   77.283     423
   77.363     450
   77.443     433
   77.523     464
   77.603     447
   77.683     462
   77.763     484
   77.843     477
   77.923     442
   78.003     473
   78.083     440
   78.163     499
   78.243     466
   78.323     450
   78.403     418
   78.483     449
   78.563     474
   78.643     480
   78.723     433
   78.803     410
   78.883     421
   78.963     454
   79.043     449
   79.123     462
   79.203     446
   79.283     420
   79.363     477
   79.443     554
   79.523     1227
   79.603     990
   79.683     456
   79.763     488
   79.843     468
   79.923     397
   80.003     439
   80.083     420
   80.163     515
   80.243     533
   80.323     1059
   80.403     2234
   80.483     853
   80.563     533
   80.643     511
   80.723     454
   80.803     451
   80.883     399
   80.963     420
   81.043     421
   81.123     531
   81.203     926
   81.283     500
   81.363     457
   81.443     396
   81.523     430
   81.603     486
   81.683     450
   81.763     428
   81.843     431
   81.923     432
   82.003     443
   82.083     426
   82.163     426
   82.243     427
   82.323     408
   82.403     452
   82.483     461
   82.563     682
   82.643     499
   82.723     420
   82.803     463
   82.883     430
   82.963     422
   83.043     401
   83.123     482
   83.203     460
   83.283     460
   83.363     491
   83.443     494
   83.523     507
   83.603     799
   83.683     1774
   83.763     1693
   83.843     819
   83.923     602
   84.003     483
   84.083     448
   84.163     407
   84.243     389
   84.323     489
   84.403     426
   84.483     480
   84.563     449
   84.643     513
   84.723     675
   84.803     1396
   84.883     889
   84.963     606
   85.043     534
   85.123     524
   85.203     509
   85.283     446
   85.363     492
   85.443     552
   85.523     777
   85.603     1584
   85.683     2146
   85.763     820
   85.843     587
   85.923     482
   86.003     491
   86.083     431
   86.163     470
   86.243     446
   86.323     401
   86.403     502
   86.483     434
   86.563     465
   86.643     441
   86.723     442
   86.803     472
   86.883     482
   86.963     468
   87.043     443
   87.123     463
   87.203     450
   87.283     457
   87.363     430
   87.443     443
   87.523     417
   87.603     400
   87.683     451
   87.763     464
   87.843     489
   87.923     448
   88.003     456
   88.083     458
   88.163     475
   88.243     468
   88.323     470
   88.403     456
   88.483     469
   88.563     447
   88.643     474
   88.723     428
   88.803     453
   88.883     435
   88.963     415
   89.043     451
   89.123     456
   89.203     465
   89.283     405
   89.363     463
   89.443     453
   89.523     426
   89.603     478
   89.683     536
   89.763     478
   89.843     404
   89.923     413
   90.003     441
   90.083     415
   90.163     452
   90.243     470
   90.323     479
   90.403     443
   90.483     417
   90.563     422
   90.643     452
   90.723     431
   90.803     422
   90.883     438
   90.963     467
   91.043     425
   91.123     444
   91.203     437
   91.283     402
   91.363     418
   91.443     423
   91.523     483
   91.603     526
   91.683     687
   91.763     538
   91.843     456
   91.923     456
   92.003     462
   92.083     447
   92.163     456
   92.243     447
   92.323     472
   92.403     454
   92.483     432
   92.563     474
   92.643     474
   92.723     462
   92.803     461
   92.883     493
   92.963     555
   93.043     719
   93.123     499
   93.203     496
   93.283     530
   93.363     490
   93.443     471
   93.523     503
   93.603     500
   93.683     484
   93.763     492
   93.843     416
   93.923     515
   94.003     499
   94.083     448
   94.163     456
   94.243     493
   94.323     507
   94.403     496
   94.483     478
   94.563     523
   94.643     469
   94.723     502
   94.803     535
   94.883     478
   94.963     458
   95.043     463
   95.123     428
   95.203     453
   95.283     433
   95.363     460
   95.443     454
   95.523     490
   95.603     478
   95.683     530
   95.763     808
   95.843     1363
   95.923     683
   96.003     635
   96.083     688
   96.163     536
   96.243     462
   96.323     446
   96.403     476
   96.483     457
   96.563     458
   96.643     447
   96.723     457
   96.803     474
   96.883     607
   96.963     487
   97.043     463
   97.123     473
   97.203     435
   97.283     476
   97.363     445
   97.443     464
   97.523     466
   97.603     450
   97.683     418
   97.763     428
   97.843     432
   97.923     463
   98.003     444
   98.083     460
   98.163     463
   98.243     481
   98.323     492
   98.403     427
   98.483     462
   98.563     467
   98.643     456
   98.723     451
   98.803     438
   98.883     455
   98.963     439
   99.043     445
   99.123     424
   99.203     423
   99.283     527
   99.363     426
   99.443     435
   99.523     448
   99.603     438
   99.683     462
   99.763     448
   99.843     488
   99.923     471
   100.003     467
   100.083     469
   100.163     475
   100.243     453
   100.323     539
   100.403     601
   100.483     949
   100.563     880
   100.643     588
   100.723     492
   100.803     512
   100.883     449
   100.963     450
   101.043     488
   101.123     492
   101.203     484
   101.283     575
   101.363     1076
   101.443     837
   101.523     582
   101.603     519
   101.683     509
   101.763     542
   101.843     465
   101.923     476
   102.003     460
   102.083     548
   102.163     490
   102.243     460
   102.323     472
   102.403     444
   102.483     478
   102.563     447
   102.643     476
   102.723     476
   102.803     470
   102.883     431
   102.963     461
   103.043     490
   103.123     490
   103.203     509
   103.283     477
   103.363     500
   103.443     505
   103.523     492
   103.603     495
   103.683     518
   103.763     477
   103.843     492
   103.923     506
   104.003     542
   104.083     481
   104.163     531
   104.243     468
   104.323     445
   104.403     489
   104.483     539
   104.563     641
   104.643     882
   104.723     1799
   104.803     1329
   104.883     777
   104.963     636
   105.043     567
   105.123     530
   105.203     548
   105.283     413
   105.363     472
   105.443     489
   105.523     462
   105.603     496
   105.683     491
   105.763     481
   105.843     498
   105.923     521
   106.003     493
   106.083     493
   106.163     475
   106.243     461
   106.323     634
   106.403     933
   106.483     1454
   106.563     844
   106.643     705
   106.723     961
   106.803     771
   106.883     546
   106.963     466
   107.043     483
   107.123     536
   107.203     489
   107.283     507
   107.363     530
   107.443     497
   107.523     513
   107.603     568
   107.683     515
   107.763     481
   107.843     458
   107.923     528
   108.003     460
   108.083     462
   108.163     485
   108.243     422
   108.323     433
   108.403     447
   108.483     464
   108.563     412
   108.643     479
   108.723     489
   108.803     445
   108.883     453
   108.963     433
   109.043     446
   109.123     460
   109.203     489
   109.283     461
   109.363     461
   109.443     401
   109.523     429
   109.603     421
   109.683     424
   109.763     471
   109.843     482
   109.923     499
   110.003     427
   110.083     475
   110.163     518
   110.243     454
   110.323     467
   110.403     475
   110.483     447
   110.563     466
   110.643     464
   110.723     439
   110.803     487
   110.883     443
   110.963     479
   111.043     486
   111.123     440
   111.203     470
   111.283     459
   111.363     391
   111.443     445
   111.523     462
   111.603     467
   111.683     473
   111.763     442
   111.843     488
   111.923     514
   112.003     502
   112.083     553
   112.163     773
   112.243     1290
   112.323     1241
   112.403     670
   112.483     498
   112.563     498
   112.643     469
   112.723     534
   112.803     521
   112.883     524
   112.963     493
   113.043     470
   113.123     619
   113.203     520
   113.283     495
   113.363     495
   113.443     410
   113.523     465
   113.603     410
   113.683     479
   113.763     444
   113.843     445
   113.923     450
   114.003     464
   114.083     430
   114.163     434
   114.243     458
   114.323     433
   114.403     471
   114.483     488
   114.563     487
   114.643     471
   114.723     496
   114.803     477
   114.883     463
   114.963     472
   115.043     448
   115.123     442
   115.203     445
   115.283     464
   115.363     495
   115.443     498
   115.523     523
   115.603     578
   115.683     630
   115.763     857
   115.843     1410
   115.923     1383
   116.003     834
   116.083     640
   116.163     558
   116.243     533
   116.323     524
   116.403     509
   116.483     519
   116.563     486
   116.643     488
   116.723     407
   116.803     478
   116.883     487
   116.963     500
   117.043     562
   117.123     683
   117.203     463
   117.283     507
   117.363     453
   117.443     483
   117.523     489
   117.603     537
   117.683     692
   117.763     762
   117.843     505
   117.923     495
   118.003     543
   118.083     467
   118.163     478
   118.243     489
   118.323     509
   118.403     474
   118.483     510
   118.563     483
   118.643     490
   118.723     452
   118.803     405
   118.883     450
   118.963     447
   119.043     419
   119.123     397
   119.203     468
   119.283     490
   119.363     396
   119.443     471
   119.523     440
   119.603     466
   119.683     449
   119.763     449
   119.843     519
   119.923     475
   119.987     403