File: exp_pxrd_data/crystalyze/RuBi2/2_Ru_Bi_postheat_widescan_grid_015.xy
1.10644  1356.59
1.14753  2216.63
1.18862  2858.07
1.22971  3052.88
1.2708  3350.57
1.31189  3532.53
1.35298  3554.88
1.39407  3882.08
1.43516  4182.98
1.47625  4420.77
1.51734  4823.98
1.55842  5116.98
1.59951  5415.95
1.6406  5639.76
1.68169  5746.85
1.72278  5815.55
1.76387  5989.21
1.80496  6124.8
1.84605  6288.9
1.88714  6475.11
1.92823  6622.99
1.96932  6742.55
2.01041  6846.25
2.0515  6955.4
2.09259  7058.35
2.13368  7160.75
2.17477  7226.19
2.21586  7293.88
2.25695  7365.07
2.29804  7443.3
2.33913  7514.7
2.38022  7602.87
2.42131  7658.24
2.4624  7734.87
2.50349  7760.6
2.54458  7805.79
2.58567  7855.24
2.62676  7904.94
2.66785  7924.49
2.70894  7949.07
2.75003  7986.35
2.79112  7998.54
2.8322  8029.37
2.87329  8041.69
2.91438  8044.04
2.95547  8063.59
2.99656  8083.48
3.03765  8088.89
3.07874  8090.3
3.11983  8088.79
3.16092  8074.64
3.20201  8098.97
3.2431  8104.83
3.28419  8100.91
3.32528  8091.9
3.36637  8088.65
3.40746  8078.94
3.44855  8076.98
3.48964  8073.49
3.53073  8056.21
3.57182  8069.07
3.61291  8069.36
3.654  8055.35
3.69509  8037.23
3.73618  8046.7
3.77727  8033.27
3.81836  8024.04
3.85945  8011.57
3.90054  8010.37
3.94163  8000.31
3.98272  7982.94
4.02381  7971.64
4.0649  7978.94
4.10598  7976.84
4.14707  7956.54
4.18816  7945.82
4.22925  7951.04
4.27034  7955.94
4.31143  7949.44
4.35252  7941.34
4.39361  7937.51
4.4347  7935.4
4.47579  7916.85
4.51688  7901.63
4.55797  7896.29
4.59906  7904.39
4.64015  7905.15
4.68124  7896.24
4.72233  7903.82
4.76342  7917.27
4.80451  7948.78
4.8456  7945.44
4.88669  7929.13
4.92778  7940.56
4.96887  7981.75
5.00996  7952.47
5.05105  7937.4
5.09214  7925.87
5.13323  7922.57
5.17432  7910.38
5.21541  7904.48
5.2565  7895.98
5.29759  7894.67
5.33868  7914.2
5.37976  7896.38
5.42085  7896.66
5.46194  7902.72
5.50303  7903.49
5.54412  7897.46
5.58521  7898.85
5.6263  7911.84
5.66739  7908.8
5.70848  7985.05
5.74957  8018.16
5.79066  8013.73
5.83175  8013.65
5.87284  8093.1
5.91393  8092.1
5.95502  8085.33
5.99611  8080.53
6.0372  8086.72
6.07829  8053.64
6.11938  8044.67
6.16047  8066.24
6.20156  8073.98
6.24265  8078.6
6.28374  8089.2
6.32483  8100.1
6.36592  8103.21
6.40701  8110.72
6.4481  8113.14
6.48919  8119.15
6.53028  8134.57
6.57137  8147.85
6.61246  8146.33
6.65354  8155.06
6.69463  8169.05
6.73572  8185.77
6.77681  8195.59
6.8179  8200.85
6.85899  8216.35
6.90008  8232.99
6.94117  8249.27
6.98226  8247.45
7.02335  8252.26
7.06444  8272.7
7.10553  8289.01
7.14662  8304.21
7.18771  8314.39
7.2288  8334.73
7.26989  8363.21
7.31098  8641.58
7.35207  9546.61
7.39316  9367.47
7.43425  8673.41
7.47534  8446.27
7.51643  8438.65
7.55752  8453.01
7.59861  8470.68
7.6397  8483.41
7.68079  8505.28
7.72188  8516.48
7.76297  8532.65
7.80406  8540.75
7.84515  8563.42
7.88623  8587.2
7.92732  8595.91
7.96841  8615.41
8.0095  8658.15
8.05059  8685.9
8.09168  8739.68
8.13277  8877.15
8.17386  9507.07
8.21495  11379.6
8.25604  12375.5
8.29713  10819.3
8.33822  9206.51
8.37931  8884.63
8.4204  8882.09
8.46149  8871.6
8.50258  8868.84
8.54367  8879.32
8.58476  8881.8
8.62585  8895.46
8.66694  8922.13
8.70803  8954.36
8.74912  8976.21
8.79021  9004.17
8.8313  9043.34
8.87239  9087.24
8.91348  9124.16
8.95457  9162.72
8.99566  9261.38
9.03675  9444.7
9.07784  9794.21
9.11893  11307
9.16001  18476.4
9.2011  28900.4
9.24219  24361.9
9.28328  13580.9
9.32437  9914.49
9.36546  9484.05
9.40655  9418.75
9.44764  9456.44
9.48873  9573.69
9.52982  9634.79
9.57091  9530.4
9.612  9549.84
9.65309  9844.57
9.69418  10914.2
9.73527  12477.9
9.77636  12066.3
9.81745  10669.3
9.85854  9763.22
9.89963  9581.47
9.94072  9655.7
9.98181  9931.82
10.0229  10035.3
10.064  9739.91
10.1051  9642.8
10.1462  10038.7
10.1873  11934
10.2283  13167.4
10.2694  10596.1
10.3105  9765.26
10.3516  9777.35
10.3927  10115.8
10.4338  10493.7
10.4749  10200.8
10.516  9897.26
10.5571  9829.66
10.5982  9824.59
10.6392  9845.03
10.6803  9868.19
10.7214  9884.44
10.7625  9908.07
10.8036  9947.09
10.8447  9997.41
10.8858  10057.3
10.9269  10258.5
10.968  11236
11.0091  13481.9
11.0501  14697.5
11.0912  13234.7
11.1323  11229.1
11.1734  10425
11.2145  10273.5
11.2556  10304.8
11.2967  10366.4
11.3378  10454.7
11.3789  10582.4
11.4199  10856.9
11.461  11720.4
11.5021  16913
11.5432  39759.8
11.5843  63207.9
11.6254  48335.9
11.6665  26203.1
11.7076  15707.7
11.7487  11955.7
11.7898  10933.2
11.8308  10705.6
11.8719  10611.9
11.913  10564.9
11.9541  10551.2
11.9952  10541.3
12.0363  10530.3
12.0774  10534.1
12.1185  10534.2
12.1596  10532
12.2007  10543
12.2417  10554.2
12.2828  10559.4
12.3239  10569.2
12.365  10583.3
12.4061  10590.6
12.4472  10599.2
12.4883  10611.6
12.5294  10625.6
12.5705  10639.3
12.6115  10661
12.6526  10679.3
12.6937  10687.6
12.7348  10711.3
12.7759  10744.2
12.817  10783.8
12.8581  10832.7
12.8992  10917.5
12.9403  11034
12.9814  11113.8
13.0224  11007.5
13.0635  10932.4
13.1046  10950.6
13.1457  10912.6
13.1868  10883.9
13.2279  10897.4
13.269  10918.6
13.3101  10935.9
13.3512  10943.9
13.3923  10947
13.4333  10952.8
13.4744  10967.2
13.5155  10976.6
13.5566  10997.9
13.5977  11012.1
13.6388  11026.3
13.6799  11048.1
13.721  11059.2
13.7621  11082
13.8031  11095.8
13.8442  11112.6
13.8853  11141.2
13.9264  11179.7
13.9675  11185.7
14.0086  11178
14.0497  11194.5
14.0908  11220.2
14.1319  11246.8
14.173  11312.1
14.214  11466.1
14.2551  11761.2
14.2962  11926.8
14.3373  11686.4
14.3784  11463.5
14.4195  11390.9
14.4606  11377
14.5017  11390.1
14.5428  11403.4
14.5839  11422.6
14.6249  11459.8
14.666  11523.8
14.7071  11726.8
14.7482  12360.7
14.7893  13308.4
14.8304  14877.8
14.8715  16091.3
14.9126  15331.1
14.9537  13388.6
14.9947  12122.7
15.0358  11734.6
15.0769  11721.9
15.118  11921.1
15.1591  11952.4
15.2002  11828.9
15.2413  11789.8
15.2824  11820.2
15.3235  11781.5
15.3646  11769.1
15.4056  11780.7
15.4467  11794.9
15.4878  11803.4
15.5289  11823.9
15.57  11864.3
15.6111  12030.3
15.6522  12522.9
15.6933  13201.3
15.7344  13983.9
15.7755  14762
15.8165  14363.3
15.8576  13256.8
15.8987  12724.2
15.9398  12388
15.9809  12152.5
16.022  12120.4
16.0631  12144.2
16.1042  12204.9
16.1453  12262.3
16.1863  12306.2
16.2274  12410.4
16.2685  12718.7
16.3096  13922.3
16.3507  18606.2
16.3918  26713.2
16.4329  26312.2
16.474  19582.6
16.5151  16636.3
16.5562  14999.5
16.5972  13345.2
16.6383  12648.7
16.6794  12391
16.7205  12336.3
16.7616  12346.7
16.8027  12464.3
16.8438  12820
16.8849  13538.3
16.926  14035.8
16.9671  13839
17.0081  13112.5
17.0492  12562.8
17.0903  12403.6
17.1314  12376.6
17.1725  12386
17.2136  12408.5
17.2547  12427.3
17.2958  12437.5
17.3369  12456.5
17.378  12466.5
17.419  12490.5
17.4601  12525.4
17.5012  12565.7
17.5423  12635.1
17.5834  12801.5
17.6245  13309.3
17.6656  15031.5
17.7067  18225.2
17.7478  18300.4
17.7888  15305
17.8299  13425.8
17.871  12861.1
17.9121  12727.3
17.9532  12729.2
17.9943  12748.8
18.0354  12771.3
18.0765  12776.2
18.1176  12756.6
18.1587  12742.1
18.1997  12734.3
18.2408  12736
18.2819  12745.6
18.323  12781.2
18.3641  12805.7
18.4052  12797.5
18.4463  12779.3
18.4874  12759.5
18.5285  12738.2
18.5696  12736.6
18.6106  12741
18.6517  12745.8
18.6928  12758.1
18.7339  12773.1
18.775  12778.6
18.8161  12788.3
18.8572  12792.2
18.8983  12822.2
18.9394  12844.1
18.9804  12851.7
19.0215  12865.1
19.0626  12901.4
19.1037  12934.8
19.1448  13066.9
19.1859  13508.3
19.227  14316.7
19.2681  14657.1
19.3092  14096.6
19.3503  13476.5
19.3913  13201.1
19.4324  13138.5
19.4735  13219.6
19.5146  13412.6
19.5557  13725.7
19.5968  14106.4
19.6379  14382.1
19.679  14162.2
19.7201  13680.5
19.7612  13277.7
19.8022  13079.1
19.8433  13002.2
19.8844  12984.9
19.9255  13000.3
19.9666  13046.6
20.0077  13182.6
20.0488  13599.3
20.0899  14173.4
20.131  14262.4
20.172  14110.2
20.2131  14230.6
20.2542  14453.3
20.2953  14739.3
20.3364  15070.9
20.3775  15084.6
20.4186  14470.9
20.4597  13931.8
20.5008  13790
20.5419  13688.1
20.5829  13647
20.624  13605.5
20.6651  13471.6
20.7062  13313.8
20.7473  13223.8
20.7884  13192.4
20.8295  13201.5
20.8706  13247.2
20.9117  13433.4
20.9528  14452.9
20.9938  15780.4
21.0349  14714.8
21.076  13453.7
21.1171  13303.2
21.1582  13381.7
21.1993  13853.4
21.2404  15164.2
21.2815  15157.2
21.3226  13886.6
21.3636  13315.6
21.4047  13277.5
21.4458  13270
21.4869  13301.5
21.528  13419.2
21.5691  13578.9
21.6102  13624.8
21.6513  13585.4
21.6924  13510.6
21.7335  13444.4
21.7745  14064
21.8156  14862.7
21.8567  15045.4
21.8978  14572.9
21.9389  14150.4
21.98  14123.3
22.0211  13970.5
22.0622  13658
22.1033  13566.5
22.1444  13779.6
22.1854  14037.7
22.2265  14338.7
22.2676  14649.6
22.3087  14738.2
22.3498  14371
22.3909  13956.1
22.432  13665.9
22.4731  13528.7
22.5142  13492.4
22.5552  13492.4
22.5963  13477.4
22.6374  13454.6
22.6785  13454.1
22.7196  13500.2
22.7607  13601.1
22.8018  13687.1
22.8429  13664.4
22.884  13557.4
22.9251  13468.9
22.9661  13415.1
23.0072  13380.3
23.0483  13374.2
23.0894  13394.3
23.1305  13468.6
23.1716  13683.9
23.2127  14269
23.2538  15150.5
23.2949  15470.9
23.336  14970
23.377  14623.7
23.4181  14492.8
23.4592  14456.9
23.5003  14553
23.5414  14441.1
23.5825  14052.3
23.6236  13768.1
23.6647  13708.5
23.7058  13795.8
23.7468  13771.1
23.7879  13609.9
23.829  13492.6
23.8701  13426.6
23.9112  13391.9
23.9523  13396.8
23.9934  13445.2
24.0345  13622.8
24.0756  13950.7
24.1167  14165.5
24.1577  14073.4
24.1988  13848.7
24.2399  13652.9
24.281  13544.4
24.3221  13515.2
24.3632  13537.6
24.4043  13579.8
24.4454  13556.2
24.4865  13484.8
24.5276  13442.2
24.5686  13438.4
24.6097  13482.4
24.6508  13590.6
24.6919  13562.3
24.733  13581.1
24.7741  13698.2
24.8152  13931.5
24.8563  14179.6
24.8974  14236
24.9385  14107.6
24.9795  13898.5
25.0206  13713.5
25.0617  13585.5
25.1028  13537.5
25.1439  13525.5
25.185  13525.9
25.2261  13541.9
25.2672  13561.2
25.3083  13632.8
25.3493  13758.5
25.3904  13848.9
25.4315  13855.7
25.4726  13822.5
25.5137  13756.2
25.5548  13682.2
25.5959  13662.2
25.637  13690.6
25.6781  13779.4
25.7192  13880.8
25.7602  13990.7
25.8013  14056
25.8424  14060.4
25.8835  14081.6
25.9246  14202.1
25.9657  14651.2
26.0068  15514.6
26.0479  16438.9
26.089  16483.5
26.1301  15601.1
26.1711  14649.2
26.2122  14093.8
26.2533  13830.1
26.2944  13728.3
26.3355  13680.4
26.3766  13661.3
26.4177  13657.6
26.4588  13655.4
26.4999  13667
26.5409  13704.2
26.582  13750.5
26.6231  13789.7
26.6642  13782.9
26.7053  13873
26.7464  14043.8
26.7875  14260.3
26.8286  14365
26.8697  14234.6
26.9108  14031
26.9518  13865.4
26.9929  13756.3
27.034  13682.9
27.0751  13666.6
27.1162  13695
27.1573  13771.3
27.1984  13980
27.2395  14192.9
27.2806  14194.4
27.3217  14115.9
27.3627  14043.9
27.4038  14033.2
27.4449  14009.8
27.486  13964.9
27.5271  13935.4
27.5682  13949.3
27.6093  13972.3
27.6504  13975.2
27.6915  14058.4
27.7325  14306.6
27.7736  14902.8
27.8147  15710.3
27.8558  15469
27.8969  14388
27.938  14011.1
27.9791  14005.4
28.0202  14127.2
28.0613  14269.6
28.1024  14320.7
28.1434  14274.5
28.1845  14114.2
28.2256  14039.6
28.2667  14038.6
28.3078  14063
28.3489  14133.7
28.39  14285.7
28.4311  14252.7
28.4722  14132.7
28.5133  14222.5
28.5543  14492.4
28.5954  14769.8
28.6365  14860.1
28.6776  14710.2
28.7187  14494.3
28.7598  14319.5
28.8009  14166.6
28.842  14083.8
28.8831  14046.4
28.9241  14021.3
28.9652  13993.6
29.0063  13971.4
29.0474  13925.7
29.0885  13919.3
29.1296  13931
29.1707  13915.9
29.2118  13920
29.2529  13958.6
29.294  14007
29.335  14072.1
29.3761  14131.4
29.4172  14214.6
29.4583  14297.5
29.4994  14339.5
29.5405  14333.7
29.5816  14212.8
29.6227  14101.4
29.6638  14015.1
29.7049  13944.1
29.7459  13897.8
29.787  13883.3
29.8281  13887.1
29.8692  13870.3
29.9103  13844.4
29.9514  13815.3
29.9925  13781.4
30.0336  13740
30.0747  13730.6
30.1157  13756.7
30.1568  13854
30.1979  13927.7
30.239  14024.5
30.2801  14148.3
30.3212  14294.1
30.3623  14433.2
30.4034  14401.7
30.4445  14079
30.4856  13821.5
30.5266  13693.5
30.5677  13644.1
30.6088  13610.8
30.6499  13628
30.691  13605.1
30.7321  13606
30.7732  13593.9
30.8143  13608.1
30.8554  13595.3
30.8965  13641.9
30.9375  13674.7
30.9786  13651.5
31.0197  13614
31.0608  13563.8
31.1019  13551.5
31.143  13547.7
31.1841  13542.4
31.2252  13546.9
31.2663  13572
31.3074  13561.7
31.3484  13579.2
31.3895  13580
31.4306  13624
31.4717  13637
31.5128  13745.8
31.5539  13989.3
31.595  14858.9
31.6361  15804.3
31.6772  15860.4
31.7182  15462.4
31.7593  14754.7
31.8004  14200.8
31.8415  13926.6
31.8826  13845.3
31.9237  13959.5
31.9648  14143.4
32.0059  14310.9
32.047  14640
32.0881  14926.9
32.1291  15314.3
32.1702  15744.7
32.2113  16770.2
32.2524  15775.2
32.273  14731.6