File: exp_pxrd_data/crystalyze/LuOF/Lu_O_F_raw.xy
   5.011     1300
   5.113     1139
   5.215     1177
   5.317     1099
   5.419     1076
   5.52101     1072
   5.62301     1061
   5.72501     983
   5.82701     1052
   5.92901     951
   6.03101     1004
   6.13301     923
   6.23501     916
   6.33701     895
   6.43902     889
   6.54102     863
   6.64302     895
   6.74502     881
   6.84702     835
   6.94902     817
   7.05102     824
   7.15302     802
   7.25503     810
   7.35703     797
   7.45903     774
   7.56103     736
   7.66303     760
   7.76503     692
   7.86703     729
   7.96903     763
   8.07103     687
   8.17304     703
   8.27504     680
   8.37704     744
   8.47904     716
   8.58104     702
   8.68304     700
   8.78504     651
   8.88704     672
   8.98904     688
   9.09105     668
   9.19305     684
   9.29505     668
   9.39705     700
   9.49905     637
   9.60105     684
   9.70305     678
   9.80505     681
   9.90705     638
   10.00906     635
   10.11106     599
   10.21306     656
   10.31506     621
   10.41706     584
   10.51906     593
   10.62106     567
   10.72306     552
   10.82506     645
   10.92707     589
   11.02907     625
   11.13107     594
   11.23307     569
   11.33507     586
   11.43707     583
   11.53907     561
   11.64107     580
   11.74308     552
   11.84508     545
   11.94708     584
   12.04908     595
   12.15108     581
   12.25308     573
   12.35508     552
   12.45708     527
   12.55908     553
   12.66109     530
   12.76309     497
   12.86509     579
   12.96709     502
   13.06909     538
   13.17109     530
   13.27309     515
   13.37509     505
   13.47709     514
   13.5791     490
   13.6811     515
   13.7831     491
   13.8851     513
   13.9871     502
   14.0891     520
   14.1911     492
   14.2931     505
   14.3951     469
   14.49711     499
   14.59911     534
   14.70111     517
   14.80311     505
   14.90511     508
   15.00711     451
   15.10911     476
   15.21111     489
   15.31312     481
   15.41512     452
   15.51712     469
   15.61912     455
   15.72112     420
   15.82312     517
   15.92512     458
   16.02712     481
   16.12912     491
   16.23113     528
   16.33313     568
   16.43513     691
   16.53713     943
   16.63913     1527
   16.74113     1732
   16.84313     809
   16.94513     595
   17.04713     479
   17.14914     489
   17.25114     477
   17.35314     457
   17.45514     459
   17.55714     429
   17.65914     456
   17.76114     492
   17.86314     452
   17.96514     422
   18.06715     438
   18.16915     416
   18.27115     443
   18.37315     408
   18.47515     422
   18.57715     422
   18.67915     437
   18.78115     449
   18.88316     428
   18.98516     451
   19.08716     387
   19.18916     417
   19.29116     412
   19.39316     437
   19.49516     427
   19.59716     426
   19.69916     382
   19.80117     384
   19.90317     402
   20.00517     396
   20.10717     399
   20.20917     399
   20.31117     395
   20.41317     419
   20.51517     409
   20.61717     419
   20.71918     418
   20.82118     405
   20.92318     380
   21.02518     397
   21.12718     405
   21.22918     394
   21.33118     414
   21.43318     388
   21.53518     409
   21.63719     414
   21.73919     385
   21.84119     368
   21.94319     370
   22.04519     385
   22.14719     402
   22.24919     380
   22.35119     389
   22.45319     389
   22.5552     397
   22.6572     341
   22.7592     379
   22.8612     390
   22.9632     361
   23.0652     429
   23.1672     398
   23.2692     433
   23.37121     529
   23.47321     650
   23.57521     638
   23.67721     461
   23.77921     461
   23.88121     387
   23.98321     387
   24.08521     360
   24.18721     369
   24.28922     378
   24.39122     351
   24.49322     407
   24.59522     376
   24.69722     352
   24.79922     386
   24.90122     392
   25.00322     399
   25.10522     368
   25.20723     396
   25.30923     339
   25.41123     385
   25.51323     413
   25.61523     376
   25.71723     387
   25.81923     437
   25.92123     393
   26.02323     363
   26.12524     413
   26.22724     402
   26.32924     387
   26.43124     376
   26.53324     368
   26.63524     426
   26.73724     409
   26.83924     369
   26.94125     383
   27.04325     398
   27.14525     403
   27.24725     431
   27.34925     430
   27.45125     456
   27.55325     489
   27.65525     580
   27.75725     611
   27.85926     676
   27.96126     748
   28.06326     829
   28.16526     1055
   28.26726     1563
   28.36926     2911
   28.47126     7057
   28.57326     19749
   28.67526     27475
   28.77727     11544
   28.87927     3646
   28.98127     1764
   29.08327     1124
   29.18527     875
   29.28727     720
   29.38927     649
   29.49127     604
   29.59327     533
   29.69528     610
   29.79728     495
   29.89928     480
   30.00128     478
   30.10328     456
   30.20528     474
   30.30728     480
   30.40928     480
   30.51129     417
   30.61329     439
   30.71529     381
   30.81729     427
   30.91929     405
   31.02129     447
   31.12329     494
   31.22529     433
   31.32729     419
   31.4293     410
   31.5313     417
   31.6333     451
   31.7353     424
   31.8373     446
   31.9393     455
   32.0413     438
   32.1433     462
   32.2453     498
   32.34731     555
   32.44931     615
   32.55131     798
   32.65331     1386
   32.75531     3068
   32.85731     6496
   32.95931     6153
   33.06131     3507
   33.16331     1528
   33.26532     909
   33.36732     695
   33.46932     738
   33.57132     999
   33.67332     1786
   33.77532     2303
   33.87732     1433
   33.97932     730
   34.08132     532
   34.18333     457
   34.28533     395
   34.38733     437
   34.48933     396
   34.59133     416
   34.69333     406
   34.79533     372
   34.89733     392
   34.99934     382
   35.10134     369
   35.20334     321
   35.30534     385
   35.40734     344
   35.50934     361
   35.61134     356
   35.71334     455
   35.81534     384
   35.91735     409
   36.01935     381
   36.12135     368
   36.22335     351
   36.32535     357
   36.42735     354
   36.52935     344
   36.63135     378
   36.73335     355
   36.83536     401
   36.93736     447
   37.03936     567
   37.14136     622
   37.24336     528
   37.34536     432
   37.44736     439
   37.54936     414
   37.65136     374
   37.75337     352
   37.85537     376
   37.95737     383
   38.05937     350
   38.16137     382
   38.26337     367
   38.36537     387
   38.46737     384
   38.56938     423
   38.67138     379
   38.77338     346
   38.87538     378
   38.97738     372
   39.07938     344
   39.18138     352
   39.28338     314
   39.38538     355
   39.48739     347
   39.58939     308
   39.69139     343
   39.79339     349
   39.89539     345
   39.99739     338
   40.09939     347
   40.20139     365
   40.30339     321
   40.4054     328
   40.5074     392
   40.6094     400
   40.7114     371
   40.8134     411
   40.9154     494
   41.0174     647
   41.1194     1130
   41.2214     2269
   41.32341     3028
   41.42541     2069
   41.52741     1086
   41.62941     742
   41.73141     697
   41.83341     649
   41.93541     618
   42.03741     548
   42.13941     448
   42.24142     375
   42.34342     399
   42.44542     380
   42.54742     367
   42.64942     389
   42.75142     435
   42.85342     429
   42.95542     423
   43.05743     397
   43.15943     421
   43.26143     373
   43.36343     351
   43.46543     353
   43.56743     330
   43.66943     345
   43.77143     356
   43.87343     364
   43.97544     354
   44.07744     310
   44.17944     327
   44.28144     317
   44.38344     330
   44.48544     317
   44.58744     330
   44.68944     344
   44.79144     328
   44.89345     361
   44.99545     329
   45.09745     334
   45.19945     331
   45.30145     333
   45.40345     290
   45.50545     341
   45.60745     347
   45.70945     331
   45.81146     355
   45.91346     338
   46.01546     326
   46.11746     323
   46.21946     405
   46.32146     359
   46.42346     387
   46.52546     422
   46.62747     404
   46.72947     480
   46.83147     563
   46.93347     818
   47.03547     1448
   47.13747     2957
   47.23947     3814
   47.34147     2975
   47.44347     1838
   47.54548     1411
   47.64748     1937
   47.74948     3943
   47.85148     5539
   47.95348     4343
   48.05548     2272
   48.15748     1130
   48.25948     680
   48.36148     526
   48.46349     469
   48.56549     445
   48.66749     421
   48.76949     407
   48.87149     372
   48.97349     377
   49.07549     413
   49.17749     369
   49.27949     396
   49.3815     398
   49.4835     400
   49.5855     362
   49.6875     360
   49.7895     379
   49.8915     422
   49.9935     469
   50.0955     495
   50.19751     545
   50.29951     622
   50.40151     809
   50.50351     765
   50.60551     595
   50.70751     416
   50.80951     379
   50.91151     382
   51.01351     377
   51.11552     379
   51.21752     354
   51.31952     444
   51.42152     511
   51.52352     707
   51.62552     919
   51.72752     882
   51.82952     710
   51.93152     567
   52.03353     447
   52.13553     370
   52.23753     379
   52.33953     311
   52.44153     273
   52.54353     324
   52.64553     329
   52.74753     317
   52.84953     317
   52.95154     309
   53.05354     298
   53.15554     354
   53.25754     506
   53.35954     448
   53.46154     416
   53.56354     339
   53.66554     342
   53.76754     335
   53.86955     319
   53.97155     332
   54.07355     341
   54.17555     331
   54.27755     330
   54.37955     372
   54.48155     377
   54.58355     330
   54.68556     380
   54.78756     365
   54.88956     354
   54.99156     364
   55.09356     365
   55.19556     390
   55.29756     407
   55.39956     445
   55.50156     433
   55.60357     527
   55.70557     624
   55.80757     906
   55.90957     1658
   56.01157     3333
   56.11357     4685
   56.21557     4776
   56.31757     3471
   56.41957     2143
   56.52158     1195
   56.62358     786
   56.72558     664
   56.82758     641
   56.92958     668
   57.03158     758
   57.13358     1202
   57.23558     1812
   57.33758     1774
   57.43959     1299
   57.54159     782
   57.64359     560
   57.74559     462
   57.84759     383
   57.94959     385
   58.05159     381
   58.15359     373
   58.2556     343
   58.3576     364
   58.4596     371
   58.5616     348
   58.6636     378
   58.7656     394
   58.8676     441
   58.9696     535
   59.0716     718
   59.17361     1220
   59.27561     1757
   59.37761     1448
   59.47961     1099
   59.58161     681
   59.68361     476
   59.78561     430
   59.88761     362
   59.98961     355
   60.09162     314
   60.19362     342
   60.29562     345
   60.39762     348
   60.49962     346
   60.60162     355
   60.70362     317
   60.80562     346
   60.90762     337
   61.00963     377
   61.11163     340
   61.21363     319
   61.31563     334
   61.41763     348
   61.51963     339
   61.62163     327
   61.72363     363
   61.82563     384
   61.92764     368
   62.02964     408
   62.13164     431
   62.23364     507
   62.33564     615
   62.43764     977
   62.53964     1344
   62.64164     1293
   62.74365     1039
   62.84565     752
   62.94765     544
   63.04965     423
   63.15165     379
   63.25365     353
   63.35565     366
   63.45765     363
   63.55965     367
   63.66166     368
   63.76366     345
   63.86566     384
   63.96766     369
   64.06966     376
   64.17166     482
   64.27366     585
   64.37566     836
   64.47766     958
   64.57967     943
   64.68167     749
   64.78367     572
   64.88567     457
   64.98767     392
   65.08967     342
   65.19167     355
   65.29367     358
   65.39567     384
   65.49768     413
   65.59968     432
   65.70168     452
   65.80368     397
   65.90568     376
   66.00768     362
   66.10968     305
   66.21168     314
   66.31369     336
   66.41569     312
   66.51769     311
   66.61969     280
   66.72169     264
   66.82369     324
   66.92569     288
   67.02769     309
   67.12969     293
   67.2317     328
   67.3337     321
   67.4357     303
   67.5377     287
   67.6397     323
   67.7417     324
   67.8437     305
   67.9457     308
   68.0477     323
   68.14971     316
   68.25171     305
   68.35371     338
   68.45571     324
   68.55771     337
   68.65971     414
   68.76171     539
   68.86371     681
   68.96571     699
   69.06772     708
   69.16972     704
   69.27172     577
   69.37372     527
   69.47572     429
   69.57772     381
   69.67972     367
   69.78172     339
   69.88373     306
   69.98573     348
   70.08773     296
   70.18973     363
   70.29173     340
   70.39373     347
   70.49573     397
   70.59773     377
   70.69973     395
   70.80174     376
   70.90374     404
   71.00574     430
   71.10774     399
   71.20974     369
   71.31174     399
   71.41374     404
   71.51574     411
   71.61774     408
   71.71975     419
   71.82175     399
   71.92375     419
   72.02575     470
   72.12775     446
   72.22975     463
   72.33175     490
   72.43375     649
   72.53575     724
   72.63776     665
   72.73976     531
   72.84176     415
   72.94376     410
   73.04576     357
   73.14776     345
   73.24976     375
   73.35176     348
   73.45376     364
   73.55577     353
   73.65777     328
   73.75977     359
   73.86177     324
   73.96377     328
   74.06577     287
   74.16777     345
   74.26977     309
   74.37178     342
   74.47378     312
   74.57578     319
   74.67778     333
   74.77978     324
   74.88178     292
   74.98378     319
   75.08578     351
   75.18778     346
   75.28979     389
   75.39179     447
   75.49379     486
   75.59579     632
   75.69779     861
   75.79979     903
   75.90179     817
   76.00379     778
   76.10579     744
   76.2078     805
   76.3098     945
   76.4118     936
   76.5138     804
   76.6158     669
   76.7178     491
   76.8198     507
   76.9218     480
   77.0238     555
   77.12581     708
   77.22781     869
   77.32981     924
   77.43181     828
   77.53381     690
   77.63581     536
   77.73781     413
   77.83981     384
   77.94182     351
   78.04382     414
   78.14582     414
   78.24782     424
   78.34982     608
   78.45182     708
   78.55382     749
   78.65582     802
   78.75782     799
   78.85983     807
   78.96183     779
   79.06383     763
   79.16583     632
   79.26783     558
   79.36983     480
   79.47183     429
   79.57383     373
   79.67583     351
   79.77784     345
   79.87984     328
   79.98184     356
   80.08384     335
   80.18584     361
   80.28784     407
   80.38984     437
   80.49184     480
   80.59384     464
   80.69585     457
   80.79785     404
   80.89985     401
   81.00185     368
   81.10385     337
   81.20585     323
   81.30785     321
   81.40985     310
   81.51185     298
   81.61386     298
   81.71586     358
   81.81786     323
   81.91986     374
   82.02186     381
   82.12386     339
   82.22586     365
   82.32786     352
   82.42987     303
   82.53187     304
   82.63387     359
   82.73587     284
   82.83787     335
   82.93987     327
   83.04187     331
   83.14387     333
   83.24587     350
   83.34788     368
   83.44988     316
   83.55188     416
   83.65388     437
   83.75588     427
   83.85788     420
   83.95988     369
   84.06188     399
   84.16388     314
   84.26589     343
   84.36789     322
   84.46989     297
   84.57189     322
   84.67389     292
   84.77589     314
   84.87789     301
   84.97989     292
   85.08189     301
   85.1839     311
   85.2859     300
   85.3879     307
   85.4899     328
   85.5919     310
   85.6939     314
   85.7959     291
   85.8979     318
   85.99991     336
   86.10191     309
   86.20391     324
   86.30591     307
   86.40791     287
   86.50991     324
   86.61191     299
   86.71391     307
   86.81591     310
   86.91792     296
   87.01992     314
   87.12192     311
   87.22392     291
   87.32592     292
   87.42792     321
   87.52992     333
   87.63192     290
   87.73392     372
   87.83593     388
   87.93793     482
   88.03993     596
   88.14193     786
   88.24393     897
   88.34593     862
   88.44793     806
   88.54993     763
   88.65193     622
   88.75394     501
   88.85594     443
   88.95794     365
   89.05994     371
   89.16194     348
   89.26394     346
   89.36594     360
   89.46794     385
   89.56995     408
   89.67195     445
   89.77395     391
   89.87595     399
   89.97795     365
   90.07995     349
   90.18195     353
   90.28395     336
   90.38595     335
   90.48796     361
   90.58996     329
   90.69196     354
   90.79396     355
   90.89596     359
   90.99796     420
   91.09996     414
   91.20196     426
   91.30396     429
   91.40597     413
   91.50797     399
   91.60997     408
   91.71197     390
   91.81397     361
   91.91597     398
   92.01797     394
   92.11997     397
   92.22197     430
   92.32398     463
   92.42598     423
   92.52798     420
   92.62998     412
   92.73198     408
   92.83398     432
   92.93598     460
   93.03798     474
   93.13998     457
   93.24199     433
   93.34399     405
   93.44599     393
   93.54799     389
   93.64999     425
   93.75199     435
   93.85399     474
   93.95599     568
   94.058     672
   94.16     914
   94.262     938
   94.364     937
   94.466     922
   94.568     1023
   94.67     833
   94.772     870
   94.874     809
   94.97601     771
   95.07801     754
   95.18001     665
   95.28201     609
   95.38401     607
   95.48601     570
   95.58801     485
   95.69001     537
   95.79201     556
   95.89402     475
   95.99602     466
   96.09802     450
   96.20002     369
   96.30202     361
   96.40402     348
   96.50602     349
   96.60802     321
   96.71002     363
   96.81203     332
   96.91403     344
   97.01603     329
   97.11803     297
   97.22003     302
   97.32203     322
   97.42403     318
   97.52603     348
   97.62804     372
   97.73004     361
   97.83204     330
   97.93404     346
   98.03604     354
   98.13804     326
   98.24004     355
   98.34204     307
   98.44404     304
   98.54605     331
   98.64805     338
   98.75005     323
   98.85205     309
   98.95405     324
   99.05605     342
   99.15805     348
   99.26005     324
   99.36205     358
   99.46406     345
   99.56606     360
   99.66806     400
   99.77006     388
   99.87206     409
   99.97406     451
   100.076     466
   100.178     566
   100.28     619
   100.382     631
   100.484     649
   100.586     571
   100.688     532
   100.79     510
   100.892     446
   100.994     412
   101.096     382
   101.198     396
   101.3     310
   101.402     308
   101.504     336
   101.606     373
   101.708     408
   101.81     466
   101.912     482
   102.014     550
   102.116     617
   102.218     684
   102.32     679
   102.422     674
   102.524     646
   102.626     585
   102.728     575
   102.83     534
   102.932     454
   103.0341     436
   103.1361     449
   103.2381     385
   103.3401     378
   103.4421     402
   103.5441     352
   103.6461     330
   103.7481     312
   103.8501     314
   103.952     327
   104.054     303
   104.156     339
   104.258     309
   104.36     286
   104.462     292
   104.564     307
   104.666     320
   104.768     310
   104.87     319
   104.972     307
   105.074     307
   105.176     324
   105.278     305
   105.38     306
   105.482     315
   105.584     306
   105.686     337
   105.788     308
   105.89     329
   105.992     344
   106.094     361
   106.196     373
   106.298     427
   106.4     421
   106.502     418
   106.604     400
   106.706     377
   106.808     399
   106.91     346
   107.012     339
   107.114     356
   107.216     328
   107.318     354
   107.42     312
   107.522     326
   107.624     316
   107.726     324
   107.828     343
   107.93     344
   108.032     343
   108.134     363
   108.236     413
   108.338     419
   108.44     397
   108.542     382
   108.644     374
   108.746     364
   108.848     334
   108.95     350
   109.052     331
   109.154     317
   109.256     344
   109.358     341
   109.46     324
   109.562     325
   109.664     322
   109.766     353
   109.868     351
   109.97     337
   110.072     331
   110.174     332
   110.276     341
   110.378     361
   110.48     348
   110.582     360
   110.684     354
   110.786     357
   110.888     340
   110.99     354
   111.092     365
   111.194     347
   111.296     388
   111.398     374
   111.5     413
   111.602     422
   111.704     503
   111.806     544
   111.908     581
   112.0102     586
   112.1122     533
   112.2142     480
   112.3162     467
   112.4182     456
   112.5202     440
   112.6222     402
   112.7242     416
   112.8262     408
   112.928     405
   113.03     474
   113.132     466
   113.234     532
   113.336     498
   113.438     519
   113.54     614
   113.642     623
   113.744     665
   113.846     637
   113.948     589
   114.05     591
   114.152     601
   114.254     554
   114.356     556
   114.458     572
   114.56     463
   114.662     524
   114.764     489
   114.866     504
   114.968     482
   115.07     505
   115.172     465
   115.274     457
   115.376     454
   115.478     405
   115.58     415
   115.682     417
   115.784     401
   115.886     399
   115.988     384
   116.09     380
   116.192     375
   116.294     409
   116.396     409
   116.498     428
   116.6     479
   116.702     478
   116.804     485
   116.906     475
   117.008     442
   117.11     456
   117.212     443
   117.314     386
   117.416     406
   117.518     393
   117.62     384
   117.722     387
   117.824     401
   117.926     388
   118.028     387
   118.13     419
   118.232     425
   118.334     413
   118.436     391
   118.538     396
   118.64     389
   118.742     377
   118.844     390
   118.946     341
   119.048     366
   119.15     410
   119.252     362
   119.354     381
   119.456     356
   119.558     365
   119.66     341
   119.762     343
   119.864     357
   119.966     344
   120.068     336
   120.17     347
   120.272     329
   120.374     302
   120.476     348
   120.578     327
   120.68     330
   120.782     354
   120.8843     305
   120.9863     314
   121.0883     353
   121.1903     317
   121.2923     308
   121.3943     302
   121.4963     360
   121.5983     331
   121.7003     367
   121.802     368
   121.904     361
   122.006     346
   122.108     365
   122.21     359
   122.312     384
   122.414     383
   122.516     376
   122.618     355
   122.72     340
   122.822     355
   122.924     376
   123.026     350
   123.128     342
   123.23     312
   123.332     332
   123.434     305
   123.536     321
   123.638     317
   123.74     335
   123.842     345
   123.944     343
   124.046     324
   124.148     384
   124.25     345
   124.352     316
   124.454     352
   124.556     339
   124.658     350
   124.76     351
   124.862     349
   124.964     324
   125.066     317
   125.168     336
   125.27     359
   125.372     332
   125.474     339
   125.576     383
   125.678     384
   125.78     379
   125.882     381
   125.984     380
   126.086     406
   126.188     474
   126.29     519
   126.392     537
   126.494     551
   126.596     582
   126.698     629
   126.8     629
   126.902     612
   127.004     595
   127.106     605
   127.208     593
   127.31     601
   127.412     536
   127.514     538
   127.616     540
   127.718     513
   127.82     504
   127.922     541
   128.024     484
   128.126     492
   128.228     446
   128.33     452
   128.432     430
   128.534     421
   128.636     414
   128.738     403
   128.84     382
   128.942     388
   129.044     414
   129.146     446
   129.248     436
   129.35     432
   129.452     411
   129.554     391
   129.656     427
   129.758     428
   129.8604     399
   129.9624     429
   130.0644     404
   130.1664     377
   130.2684     392
   130.3704     393
   130.4724     411
   130.5744     379
   130.6764     383
   130.778     406
   130.88     454
   130.982     431
   131.084     450
   131.186     467
   131.288     432
   131.39     424
   131.492     403
   131.594     430
   131.696     415
   131.798     428
   131.9     408
   132.002     428
   132.104     433
   132.206     420
   132.308     419
   132.41     410
   132.512     394
   132.614     356
   132.716     403
   132.818     365
   132.92     410
   133.022     392
   133.124     384
   133.226     410
   133.328     442
   133.43     413
   133.532     454
   133.634     434
   133.736     475
   133.838     491
   133.94     502
   134.042     529
   134.144     504
   134.246     504
   134.348     511
   134.45     462
   134.552     458
   134.654     465
   134.756     508
   134.858     482
   134.96     456
   134.977     454